onset	duration	sample	value	event_code	user_answer	correct_answer	target_count
0	n/a	0	break cnt	break cnt	n/a	n/a	8
36.904	n/a	18452	seqLearning_start	91	n/a	n/a	8
43.172	n/a	21586	learningBlock_1	31	n/a	n/a	8
43.202	n/a	21601	dot_no1_ON	11	n/a	n/a	8
43.792	n/a	21896	dot_no1_OFF	21	n/a	n/a	8
45.112	n/a	22556	dot_no6_ON	16	n/a	n/a	8
45.692	n/a	22846	dot_no6_OFF	26	n/a	n/a	8
47.012	n/a	23506	dot_no4_ON	14	n/a	n/a	8
47.592	n/a	23796	dot_no4_OFF	24	n/a	n/a	8
48.912	n/a	24456	dot_no2_ON	12	n/a	n/a	8
49.492	n/a	24746	dot_no2_OFF	22	n/a	n/a	8
50.812	n/a	25406	dot_no7_ON	17	n/a	n/a	8
51.392	n/a	25696	dot_no7_OFF	27	n/a	n/a	8
52.712	n/a	26356	dot_no3_ON	13	n/a	n/a	8
53.292	n/a	26646	dot_no3_OFF	23	n/a	n/a	8
54.612	n/a	27306	dot_no8_ON	18	n/a	n/a	8
55.192	n/a	27596	dot_no8_OFF	28	n/a	n/a	8
56.512	n/a	28256	dot_no5_ON	15	n/a	n/a	8
57.102	n/a	28551	dot_no5_OFF	25	n/a	n/a	8
58.422	n/a	29211	dot_no2_ON	12	n/a	n/a	8
59.002	n/a	29501	dot_no2_OFF	22	n/a	n/a	8
60.322	n/a	30161	dot_no7_ON	17	n/a	n/a	8
60.902	n/a	30451	dot_no7_OFF	27	1-6-8-4-7-2-3-5-3-2	1-6-4-2-7-3-8-5-2-7	8
85.044	n/a	42522	learningBlock_2	32	n/a	n/a	8
85.052	n/a	42526	dot_no1_ON	11	n/a	n/a	8
85.632	n/a	42816	dot_no1_OFF	21	n/a	n/a	8
86.952	n/a	43476	dot_no6_ON	16	n/a	n/a	8
87.532	n/a	43766	dot_no6_OFF	26	n/a	n/a	8
88.852	n/a	44426	dot_no4_ON	14	n/a	n/a	8
89.432	n/a	44716	dot_no4_OFF	24	n/a	n/a	8
90.752	n/a	45376	dot_no2_ON	12	n/a	n/a	8
91.332	n/a	45666	dot_no2_OFF	22	n/a	n/a	8
92.652	n/a	46326	dot_no7_ON	17	n/a	n/a	8
93.232	n/a	46616	dot_no7_OFF	27	n/a	n/a	8
94.552	n/a	47276	dot_no3_ON	13	n/a	n/a	8
95.132	n/a	47566	dot_no3_OFF	23	n/a	n/a	8
96.452	n/a	48226	dot_no8_ON	18	n/a	n/a	8
97.032	n/a	48516	dot_no8_OFF	28	n/a	n/a	8
98.352	n/a	49176	dot_no5_ON	15	n/a	n/a	8
98.962	n/a	49481	dot_no5_OFF	25	n/a	n/a	8
100.282	n/a	50141	dot_no2_ON	12	n/a	n/a	8
100.862	n/a	50431	dot_no2_OFF	22	n/a	n/a	8
102.182	n/a	51091	dot_no7_ON	17	n/a	n/a	8
102.762	n/a	51381	dot_no7_OFF	27	1-6-8-4-7-2-5-3-1-6	1-6-4-2-7-3-8-5-2-7	8
124.546	n/a	62273	learningBlock_3	33	n/a	n/a	8
124.554	n/a	62277	dot_no1_ON	11	n/a	n/a	8
125.134	n/a	62567	dot_no1_OFF	21	n/a	n/a	8
126.454	n/a	63227	dot_no6_ON	16	n/a	n/a	8
127.034	n/a	63517	dot_no6_OFF	26	n/a	n/a	8
128.354	n/a	64177	dot_no4_ON	14	n/a	n/a	8
128.934	n/a	64467	dot_no4_OFF	24	n/a	n/a	8
130.254	n/a	65127	dot_no2_ON	12	n/a	n/a	8
130.834	n/a	65417	dot_no2_OFF	22	n/a	n/a	8
132.154	n/a	66077	dot_no7_ON	17	n/a	n/a	8
132.734	n/a	66367	dot_no7_OFF	27	n/a	n/a	8
134.054	n/a	67027	dot_no3_ON	13	n/a	n/a	8
134.634	n/a	67317	dot_no3_OFF	23	n/a	n/a	8
135.954	n/a	67977	dot_no8_ON	18	n/a	n/a	8
136.534	n/a	68267	dot_no8_OFF	28	n/a	n/a	8
137.854	n/a	68927	dot_no5_ON	15	n/a	n/a	8
138.434	n/a	69217	dot_no5_OFF	25	n/a	n/a	8
139.754	n/a	69877	dot_no2_ON	12	n/a	n/a	8
140.334	n/a	70167	dot_no2_OFF	22	n/a	n/a	8
141.654	n/a	70827	dot_no7_ON	17	n/a	n/a	8
142.234	n/a	71117	dot_no7_OFF	27	2-6-5-1-8-4-3-7-5-1	1-6-4-2-7-3-8-5-2-7	8
159.046	n/a	79523	learningBlock_4	34	n/a	n/a	8
159.054	n/a	79527	dot_no1_ON	11	n/a	n/a	8
159.634	n/a	79817	dot_no1_OFF	21	n/a	n/a	8
160.954	n/a	80477	dot_no6_ON	16	n/a	n/a	8
161.534	n/a	80767	dot_no6_OFF	26	n/a	n/a	8
162.854	n/a	81427	dot_no4_ON	14	n/a	n/a	8
163.434	n/a	81717	dot_no4_OFF	24	n/a	n/a	8
164.754	n/a	82377	dot_no2_ON	12	n/a	n/a	8
165.334	n/a	82667	dot_no2_OFF	22	n/a	n/a	8
166.654	n/a	83327	dot_no7_ON	17	n/a	n/a	8
167.234	n/a	83617	dot_no7_OFF	27	n/a	n/a	8
168.554	n/a	84277	dot_no3_ON	13	n/a	n/a	8
169.134	n/a	84567	dot_no3_OFF	23	n/a	n/a	8
170.454	n/a	85227	dot_no8_ON	18	n/a	n/a	8
171.034	n/a	85517	dot_no8_OFF	28	n/a	n/a	8
172.354	n/a	86177	dot_no5_ON	15	n/a	n/a	8
172.944	n/a	86472	dot_no5_OFF	25	n/a	n/a	8
174.264	n/a	87132	dot_no2_ON	12	n/a	n/a	8
174.844	n/a	87422	dot_no2_OFF	22	n/a	n/a	8
176.164	n/a	88082	dot_no7_ON	17	n/a	n/a	8
176.744	n/a	88372	dot_no7_OFF	27	1-6-4-8-7-2-3-5-6-2	1-6-4-2-7-3-8-5-2-7	8
194.156	n/a	97078	learningBlock_5	35	n/a	n/a	8
194.164	n/a	97082	dot_no1_ON	11	n/a	n/a	8
194.744	n/a	97372	dot_no1_OFF	21	n/a	n/a	8
196.064	n/a	98032	dot_no6_ON	16	n/a	n/a	8
196.644	n/a	98322	dot_no6_OFF	26	n/a	n/a	8
197.964	n/a	98982	dot_no4_ON	14	n/a	n/a	8
198.544	n/a	99272	dot_no4_OFF	24	n/a	n/a	8
199.864	n/a	99932	dot_no2_ON	12	n/a	n/a	8
200.444	n/a	100222	dot_no2_OFF	22	n/a	n/a	8
201.764	n/a	100882	dot_no7_ON	17	n/a	n/a	8
202.356	n/a	101178	dot_no7_OFF	27	n/a	n/a	8
203.674	n/a	101837	dot_no3_ON	13	n/a	n/a	8
204.254	n/a	102127	dot_no3_OFF	23	n/a	n/a	8
205.574	n/a	102787	dot_no8_ON	18	n/a	n/a	8
206.154	n/a	103077	dot_no8_OFF	28	n/a	n/a	8
207.474	n/a	103737	dot_no5_ON	15	n/a	n/a	8
208.054	n/a	104027	dot_no5_OFF	25	n/a	n/a	8
209.376	n/a	104688	dot_no2_ON	12	n/a	n/a	8
209.956	n/a	104978	dot_no2_OFF	22	n/a	n/a	8
211.276	n/a	105638	dot_no7_ON	17	n/a	n/a	8
211.866	n/a	105933	dot_no7_OFF	27	1-6-4-8-2-3-7-5-4-1	1-6-4-2-7-3-8-5-2-7	8
227.838	n/a	113919	seqLearning_stop	50	n/a	n/a	8
231.831	n/a	115915.5	boundary	boundary	n/a	n/a	8
