onset	duration	sample	value	event_code	user_answer	correct_answer	target_count
0	n/a	0	break cnt	break cnt	n/a	n/a	8
106.24	n/a	53120	seqLearning_start	91	n/a	n/a	8
115.562	n/a	57781	learningBlock_1	31	n/a	n/a	8
115.578	n/a	57789	dot_no1_ON	11	n/a	n/a	8
116.168	n/a	58084	dot_no1_OFF	21	n/a	n/a	8
117.488	n/a	58744	dot_no6_ON	16	n/a	n/a	8
118.078	n/a	59039	dot_no6_OFF	26	n/a	n/a	8
119.398	n/a	59699	dot_no4_ON	14	n/a	n/a	8
119.988	n/a	59994	dot_no4_OFF	24	n/a	n/a	8
121.308	n/a	60654	dot_no2_ON	12	n/a	n/a	8
121.898	n/a	60949	dot_no2_OFF	22	n/a	n/a	8
123.218	n/a	61609	dot_no7_ON	17	n/a	n/a	8
123.808	n/a	61904	dot_no7_OFF	27	n/a	n/a	8
125.128	n/a	62564	dot_no3_ON	13	n/a	n/a	8
125.718	n/a	62859	dot_no3_OFF	23	n/a	n/a	8
127.038	n/a	63519	dot_no8_ON	18	n/a	n/a	8
127.628	n/a	63814	dot_no8_OFF	28	n/a	n/a	8
128.948	n/a	64474	dot_no5_ON	15	n/a	n/a	8
129.538	n/a	64769	dot_no5_OFF	25	n/a	n/a	8
130.858	n/a	65429	dot_no2_ON	12	n/a	n/a	8
131.448	n/a	65724	dot_no2_OFF	22	n/a	n/a	8
132.768	n/a	66384	dot_no7_ON	17	n/a	n/a	8
133.358	n/a	66679	dot_no7_OFF	27	1-6-3-8-4-2-7-5-2-7	1-6-4-2-7-3-8-5-2-7	8
169.726	n/a	84863	learningBlock_2	32	n/a	n/a	8
169.738	n/a	84869	dot_no1_ON	11	n/a	n/a	8
170.328	n/a	85164	dot_no1_OFF	21	n/a	n/a	8
171.65	n/a	85825	dot_no6_ON	16	n/a	n/a	8
172.238	n/a	86119	dot_no6_OFF	26	n/a	n/a	8
173.56	n/a	86780	dot_no4_ON	14	n/a	n/a	8
174.148	n/a	87074	dot_no4_OFF	24	n/a	n/a	8
175.468	n/a	87734	dot_no2_ON	12	n/a	n/a	8
176.058	n/a	88029	dot_no2_OFF	22	n/a	n/a	8
177.38	n/a	88690	dot_no7_ON	17	n/a	n/a	8
177.968	n/a	88984	dot_no7_OFF	27	n/a	n/a	8
179.29	n/a	89645	dot_no3_ON	13	n/a	n/a	8
179.878	n/a	89939	dot_no3_OFF	23	n/a	n/a	8
181.2	n/a	90600	dot_no8_ON	18	n/a	n/a	8
181.788	n/a	90894	dot_no8_OFF	28	n/a	n/a	8
183.11	n/a	91555	dot_no5_ON	15	n/a	n/a	8
183.698	n/a	91849	dot_no5_OFF	25	n/a	n/a	8
185.018	n/a	92509	dot_no2_ON	12	n/a	n/a	8
185.608	n/a	92804	dot_no2_OFF	22	n/a	n/a	8
186.928	n/a	93464	dot_no7_ON	17	n/a	n/a	8
187.518	n/a	93759	dot_no7_OFF	27	1-6-4-2-7-3-8-5-2-7	1-6-4-2-7-3-8-5-2-7	8
208.734	n/a	104367	learningBlock_3	33	n/a	n/a	8
208.75	n/a	104375	dot_no1_ON	11	n/a	n/a	8
209.338	n/a	104669	dot_no1_OFF	21	n/a	n/a	8
210.66	n/a	105330	dot_no6_ON	16	n/a	n/a	8
211.248	n/a	105624	dot_no6_OFF	26	n/a	n/a	8
212.57	n/a	106285	dot_no4_ON	14	n/a	n/a	8
213.158	n/a	106579	dot_no4_OFF	24	n/a	n/a	8
214.484	n/a	107242	dot_no2_ON	12	n/a	n/a	8
215.068	n/a	107534	dot_no2_OFF	22	n/a	n/a	8
216.39	n/a	108195	dot_no7_ON	17	n/a	n/a	8
216.978	n/a	108489	dot_no7_OFF	27	n/a	n/a	8
218.3	n/a	109150	dot_no3_ON	13	n/a	n/a	8
218.888	n/a	109444	dot_no3_OFF	23	n/a	n/a	8
220.21	n/a	110105	dot_no8_ON	18	n/a	n/a	8
220.798	n/a	110399	dot_no8_OFF	28	n/a	n/a	8
222.12	n/a	111060	dot_no5_ON	15	n/a	n/a	8
222.708	n/a	111354	dot_no5_OFF	25	n/a	n/a	8
224.03	n/a	112015	dot_no2_ON	12	n/a	n/a	8
224.62	n/a	112310	dot_no2_OFF	22	n/a	n/a	8
225.94	n/a	112970	dot_no7_ON	17	n/a	n/a	8
226.528	n/a	113264	dot_no7_OFF	27	1-6-4-2-7-3-8-5-2-7	1-6-4-2-7-3-8-5-2-7	8
246.284	n/a	123142	learningBlock_4	34	n/a	n/a	8
246.3	n/a	123150	dot_no1_ON	11	n/a	n/a	8
246.888	n/a	123444	dot_no1_OFF	21	n/a	n/a	8
248.21	n/a	124105	dot_no6_ON	16	n/a	n/a	8
248.798	n/a	124399	dot_no6_OFF	26	n/a	n/a	8
250.12	n/a	125060	dot_no4_ON	14	n/a	n/a	8
250.708	n/a	125354	dot_no4_OFF	24	n/a	n/a	8
252.03	n/a	126015	dot_no2_ON	12	n/a	n/a	8
252.618	n/a	126309	dot_no2_OFF	22	n/a	n/a	8
253.94	n/a	126970	dot_no7_ON	17	n/a	n/a	8
254.528	n/a	127264	dot_no7_OFF	27	n/a	n/a	8
255.85	n/a	127925	dot_no3_ON	13	n/a	n/a	8
256.438	n/a	128219	dot_no3_OFF	23	n/a	n/a	8
257.76	n/a	128880	dot_no8_ON	18	n/a	n/a	8
258.35	n/a	129175	dot_no8_OFF	28	n/a	n/a	8
259.67	n/a	129835	dot_no5_ON	15	n/a	n/a	8
260.258	n/a	130129	dot_no5_OFF	25	n/a	n/a	8
261.58	n/a	130790	dot_no2_ON	12	n/a	n/a	8
262.168	n/a	131084	dot_no2_OFF	22	n/a	n/a	8
263.49	n/a	131745	dot_no7_ON	17	n/a	n/a	8
264.08	n/a	132040	dot_no7_OFF	27	1-6-4-2-7-3-8-5-2-7	1-6-4-2-7-3-8-5-2-7	8
291.082	n/a	145541	learningBlock_5	35	n/a	n/a	8
291.09	n/a	145545	dot_no1_ON	11	n/a	n/a	8
291.678	n/a	145839	dot_no1_OFF	21	n/a	n/a	8
293	n/a	146500	dot_no6_ON	16	n/a	n/a	8
293.588	n/a	146794	dot_no6_OFF	26	n/a	n/a	8
294.91	n/a	147455	dot_no4_ON	14	n/a	n/a	8
295.508	n/a	147754	dot_no4_OFF	24	n/a	n/a	8
296.83	n/a	148415	dot_no2_ON	12	n/a	n/a	8
297.42	n/a	148710	dot_no2_OFF	22	n/a	n/a	8
298.74	n/a	149370	dot_no7_ON	17	n/a	n/a	8
299.33	n/a	149665	dot_no7_OFF	27	n/a	n/a	8
300.65	n/a	150325	dot_no3_ON	13	n/a	n/a	8
301.24	n/a	150620	dot_no3_OFF	23	n/a	n/a	8
302.56	n/a	151280	dot_no8_ON	18	n/a	n/a	8
303.15	n/a	151575	dot_no8_OFF	28	n/a	n/a	8
304.47	n/a	152235	dot_no5_ON	15	n/a	n/a	8
305.058	n/a	152529	dot_no5_OFF	25	n/a	n/a	8
306.38	n/a	153190	dot_no2_ON	12	n/a	n/a	8
306.968	n/a	153484	dot_no2_OFF	22	n/a	n/a	8
308.29	n/a	154145	dot_no7_ON	17	n/a	n/a	8
308.88	n/a	154440	dot_no7_OFF	27	1-6-4-2-7-3-8-5-2-7	1-6-4-2-7-3-8-5-2-7	8
328.59	n/a	164295	seqLearning_stop	50	n/a	n/a	8
330.503	n/a	165251.5	boundary	boundary	n/a	n/a	8
