onset	duration	sample	value	event_code	user_answer	correct_answer	target_count
0	n/a	0	break cnt	break cnt	n/a	n/a	8
33.346	n/a	16673	seqLearning_start	91	n/a	n/a	8
41.654	n/a	20827	learningBlock_1	31	n/a	n/a	8
41.67	n/a	20835	dot_no1_ON	11	n/a	n/a	8
42.226	n/a	21113	dot_no1_OFF	21	n/a	n/a	8
43.542	n/a	21771	dot_no6_ON	16	n/a	n/a	8
44.092	n/a	22046	dot_no6_OFF	26	n/a	n/a	8
45.406	n/a	22703	dot_no4_ON	14	n/a	n/a	8
45.958	n/a	22979	dot_no4_OFF	24	n/a	n/a	8
47.272	n/a	23636	dot_no2_ON	12	n/a	n/a	8
47.826	n/a	23913	dot_no2_OFF	22	n/a	n/a	8
49.138	n/a	24569	dot_no7_ON	17	n/a	n/a	8
49.69	n/a	24845	dot_no7_OFF	27	n/a	n/a	8
51.004	n/a	25502	dot_no3_ON	13	n/a	n/a	8
51.556	n/a	25778	dot_no3_OFF	23	n/a	n/a	8
52.87	n/a	26435	dot_no8_ON	18	n/a	n/a	8
53.422	n/a	26711	dot_no8_OFF	28	n/a	n/a	8
54.736	n/a	27368	dot_no5_ON	15	n/a	n/a	8
55.288	n/a	27644	dot_no5_OFF	25	n/a	n/a	8
56.602	n/a	28301	dot_no2_ON	12	n/a	n/a	8
57.154	n/a	28577	dot_no2_OFF	22	n/a	n/a	8
58.468	n/a	29234	dot_no7_ON	17	n/a	n/a	8
59.02	n/a	29510	dot_no7_OFF	27	1-6-8-4-7-2-6-6-8-3	1-6-4-2-7-3-8-5-2-7	8
95.198	n/a	47599	learningBlock_2	32	n/a	n/a	8
95.206	n/a	47603	dot_no1_ON	11	n/a	n/a	8
95.756	n/a	47878	dot_no1_OFF	21	n/a	n/a	8
97.07	n/a	48535	dot_no6_ON	16	n/a	n/a	8
97.62	n/a	48810	dot_no6_OFF	26	n/a	n/a	8
98.934	n/a	49467	dot_no4_ON	14	n/a	n/a	8
99.484	n/a	49742	dot_no4_OFF	24	n/a	n/a	8
100.798	n/a	50399	dot_no2_ON	12	n/a	n/a	8
101.348	n/a	50674	dot_no2_OFF	22	n/a	n/a	8
102.662	n/a	51331	dot_no7_ON	17	n/a	n/a	8
103.216	n/a	51608	dot_no7_OFF	27	n/a	n/a	8
104.53	n/a	52265	dot_no3_ON	13	n/a	n/a	8
105.082	n/a	52541	dot_no3_OFF	23	n/a	n/a	8
106.396	n/a	53198	dot_no8_ON	18	n/a	n/a	8
106.95	n/a	53475	dot_no8_OFF	28	n/a	n/a	8
108.264	n/a	54132	dot_no5_ON	15	n/a	n/a	8
108.816	n/a	54408	dot_no5_OFF	25	n/a	n/a	8
110.128	n/a	55064	dot_no2_ON	12	n/a	n/a	8
110.678	n/a	55339	dot_no2_OFF	22	n/a	n/a	8
111.992	n/a	55996	dot_no7_ON	17	n/a	n/a	8
112.544	n/a	56272	dot_no7_OFF	27	1-6-8-4-2-7-3-6-2-5	1-6-4-2-7-3-8-5-2-7	8
138.148	n/a	69074	learningBlock_3	33	n/a	n/a	8
138.154	n/a	69077	dot_no1_ON	11	n/a	n/a	8
138.704	n/a	69352	dot_no1_OFF	21	n/a	n/a	8
140.018	n/a	70009	dot_no6_ON	16	n/a	n/a	8
140.568	n/a	70284	dot_no6_OFF	26	n/a	n/a	8
141.88	n/a	70940	dot_no4_ON	14	n/a	n/a	8
142.434	n/a	71217	dot_no4_OFF	24	n/a	n/a	8
143.748	n/a	71874	dot_no2_ON	12	n/a	n/a	8
144.302	n/a	72151	dot_no2_OFF	22	n/a	n/a	8
145.616	n/a	72808	dot_no7_ON	17	n/a	n/a	8
146.166	n/a	73083	dot_no7_OFF	27	n/a	n/a	8
147.48	n/a	73740	dot_no3_ON	13	n/a	n/a	8
148.032	n/a	74016	dot_no3_OFF	23	n/a	n/a	8
149.346	n/a	74673	dot_no8_ON	18	n/a	n/a	8
149.898	n/a	74949	dot_no8_OFF	28	n/a	n/a	8
151.212	n/a	75606	dot_no5_ON	15	n/a	n/a	8
151.762	n/a	75881	dot_no5_OFF	25	n/a	n/a	8
153.076	n/a	76538	dot_no2_ON	12	n/a	n/a	8
153.63	n/a	76815	dot_no2_OFF	22	n/a	n/a	8
154.944	n/a	77472	dot_no7_ON	17	n/a	n/a	8
155.496	n/a	77748	dot_no7_OFF	27	1-6-8-4-2-7-3-8-5-2	1-6-4-2-7-3-8-5-2-7	8
173.404	n/a	86702	learningBlock_4	34	n/a	n/a	8
173.412	n/a	86706	dot_no1_ON	11	n/a	n/a	8
173.964	n/a	86982	dot_no1_OFF	21	n/a	n/a	8
175.278	n/a	87639	dot_no6_ON	16	n/a	n/a	8
175.828	n/a	87914	dot_no6_OFF	26	n/a	n/a	8
177.142	n/a	88571	dot_no4_ON	14	n/a	n/a	8
177.698	n/a	88849	dot_no4_OFF	24	n/a	n/a	8
179.01	n/a	89505	dot_no2_ON	12	n/a	n/a	8
179.558	n/a	89779	dot_no2_OFF	22	n/a	n/a	8
180.872	n/a	90436	dot_no7_ON	17	n/a	n/a	8
181.422	n/a	90711	dot_no7_OFF	27	n/a	n/a	8
182.736	n/a	91368	dot_no3_ON	13	n/a	n/a	8
183.288	n/a	91644	dot_no3_OFF	23	n/a	n/a	8
184.602	n/a	92301	dot_no8_ON	18	n/a	n/a	8
185.158	n/a	92579	dot_no8_OFF	28	n/a	n/a	8
186.47	n/a	93235	dot_no5_ON	15	n/a	n/a	8
187.024	n/a	93512	dot_no5_OFF	25	n/a	n/a	8
188.336	n/a	94168	dot_no2_ON	12	n/a	n/a	8
188.888	n/a	94444	dot_no2_OFF	22	n/a	n/a	8
190.2	n/a	95100	dot_no7_ON	17	n/a	n/a	8
190.754	n/a	95377	dot_no7_OFF	27	1-6-4-2-7-3-8-5-2-6	1-6-4-2-7-3-8-5-2-7	8
208.362	n/a	104181	learningBlock_5	35	n/a	n/a	8
208.37	n/a	104185	dot_no1_ON	11	n/a	n/a	8
208.922	n/a	104461	dot_no1_OFF	21	n/a	n/a	8
210.236	n/a	105118	dot_no6_ON	16	n/a	n/a	8
210.788	n/a	105394	dot_no6_OFF	26	n/a	n/a	8
212.102	n/a	106051	dot_no4_ON	14	n/a	n/a	8
212.654	n/a	106327	dot_no4_OFF	24	n/a	n/a	8
213.968	n/a	106984	dot_no2_ON	12	n/a	n/a	8
214.52	n/a	107260	dot_no2_OFF	22	n/a	n/a	8
215.834	n/a	107917	dot_no7_ON	17	n/a	n/a	8
216.386	n/a	108193	dot_no7_OFF	27	n/a	n/a	8
217.7	n/a	108850	dot_no3_ON	13	n/a	n/a	8
218.252	n/a	109126	dot_no3_OFF	23	n/a	n/a	8
219.566	n/a	109783	dot_no8_ON	18	n/a	n/a	8
220.122	n/a	110061	dot_no8_OFF	28	n/a	n/a	8
221.434	n/a	110717	dot_no5_ON	15	n/a	n/a	8
221.988	n/a	110994	dot_no5_OFF	25	n/a	n/a	8
223.3	n/a	111650	dot_no2_ON	12	n/a	n/a	8
223.854	n/a	111927	dot_no2_OFF	22	n/a	n/a	8
225.166	n/a	112583	dot_no7_ON	17	n/a	n/a	8
225.718	n/a	112859	dot_no7_OFF	27	1-6-4-2-7-3-8-5-2-7	1-6-4-2-7-3-8-5-2-7	8
253.024	n/a	126512	seqLearning_stop	50	n/a	n/a	8
254.953	n/a	127476.5	boundary	boundary	n/a	n/a	8
