onset	duration	sample	value	event_code	user_answer	correct_answer	target_count
0	n/a	0	break cnt	break cnt	n/a	n/a	8
27.574	n/a	13787	seqLearning_start	91	n/a	n/a	8
36.922	n/a	18461	learningBlock_1	31	n/a	n/a	8
36.938	n/a	18469	dot_no1_ON	11	n/a	n/a	8
37.526	n/a	18763	dot_no1_OFF	21	n/a	n/a	8
38.848	n/a	19424	dot_no6_ON	16	n/a	n/a	8
39.436	n/a	19718	dot_no6_OFF	26	n/a	n/a	8
40.758	n/a	20379	dot_no4_ON	14	n/a	n/a	8
41.346	n/a	20673	dot_no4_OFF	24	n/a	n/a	8
42.668	n/a	21334	dot_no2_ON	12	n/a	n/a	8
43.258	n/a	21629	dot_no2_OFF	22	n/a	n/a	8
44.578	n/a	22289	dot_no7_ON	17	n/a	n/a	8
45.166	n/a	22583	dot_no7_OFF	27	n/a	n/a	8
46.486	n/a	23243	dot_no3_ON	13	n/a	n/a	8
47.076	n/a	23538	dot_no3_OFF	23	n/a	n/a	8
48.398	n/a	24199	dot_no8_ON	18	n/a	n/a	8
48.986	n/a	24493	dot_no8_OFF	28	n/a	n/a	8
50.308	n/a	25154	dot_no5_ON	15	n/a	n/a	8
50.896	n/a	25448	dot_no5_OFF	25	n/a	n/a	8
52.216	n/a	26108	dot_no2_ON	12	n/a	n/a	8
52.806	n/a	26403	dot_no2_OFF	22	n/a	n/a	8
54.128	n/a	27064	dot_no7_ON	17	n/a	n/a	8
54.716	n/a	27358	dot_no7_OFF	27	1-6-8-4-2-7-1-3-5-8	1-6-4-2-7-3-8-5-2-7	8
91.34	n/a	45670	learningBlock_2	32	n/a	n/a	8
91.348	n/a	45674	dot_no1_ON	11	n/a	n/a	8
91.936	n/a	45968	dot_no1_OFF	21	n/a	n/a	8
93.258	n/a	46629	dot_no6_ON	16	n/a	n/a	8
93.846	n/a	46923	dot_no6_OFF	26	n/a	n/a	8
95.168	n/a	47584	dot_no4_ON	14	n/a	n/a	8
95.756	n/a	47878	dot_no4_OFF	24	n/a	n/a	8
97.078	n/a	48539	dot_no2_ON	12	n/a	n/a	8
97.666	n/a	48833	dot_no2_OFF	22	n/a	n/a	8
98.988	n/a	49494	dot_no7_ON	17	n/a	n/a	8
99.578	n/a	49789	dot_no7_OFF	27	n/a	n/a	8
100.898	n/a	50449	dot_no3_ON	13	n/a	n/a	8
101.486	n/a	50743	dot_no3_OFF	23	n/a	n/a	8
102.808	n/a	51404	dot_no8_ON	18	n/a	n/a	8
103.396	n/a	51698	dot_no8_OFF	28	n/a	n/a	8
104.718	n/a	52359	dot_no5_ON	15	n/a	n/a	8
105.306	n/a	52653	dot_no5_OFF	25	n/a	n/a	8
106.628	n/a	53314	dot_no2_ON	12	n/a	n/a	8
107.216	n/a	53608	dot_no2_OFF	22	n/a	n/a	8
108.538	n/a	54269	dot_no7_ON	17	n/a	n/a	8
109.128	n/a	54564	dot_no7_OFF	27	1-6-4-2-7-3-8-5-2-1	1-6-4-2-7-3-8-5-2-7	8
144.572	n/a	72286	learningBlock_3	33	n/a	n/a	8
144.588	n/a	72294	dot_no1_ON	11	n/a	n/a	8
145.178	n/a	72589	dot_no1_OFF	21	n/a	n/a	8
146.498	n/a	73249	dot_no6_ON	16	n/a	n/a	8
147.086	n/a	73543	dot_no6_OFF	26	n/a	n/a	8
148.408	n/a	74204	dot_no4_ON	14	n/a	n/a	8
148.998	n/a	74499	dot_no4_OFF	24	n/a	n/a	8
150.318	n/a	75159	dot_no2_ON	12	n/a	n/a	8
150.906	n/a	75453	dot_no2_OFF	22	n/a	n/a	8
152.228	n/a	76114	dot_no7_ON	17	n/a	n/a	8
152.818	n/a	76409	dot_no7_OFF	27	n/a	n/a	8
154.138	n/a	77069	dot_no3_ON	13	n/a	n/a	8
154.726	n/a	77363	dot_no3_OFF	23	n/a	n/a	8
156.048	n/a	78024	dot_no8_ON	18	n/a	n/a	8
156.638	n/a	78319	dot_no8_OFF	28	n/a	n/a	8
157.958	n/a	78979	dot_no5_ON	15	n/a	n/a	8
158.546	n/a	79273	dot_no5_OFF	25	n/a	n/a	8
159.868	n/a	79934	dot_no2_ON	12	n/a	n/a	8
160.458	n/a	80229	dot_no2_OFF	22	n/a	n/a	8
161.778	n/a	80889	dot_no7_ON	17	n/a	n/a	8
162.368	n/a	81184	dot_no7_OFF	27	6-1-4-2-7-3-5-8-1-2	1-6-4-2-7-3-8-5-2-7	8
191.876	n/a	95938	learningBlock_4	34	n/a	n/a	8
191.888	n/a	95944	dot_no1_ON	11	n/a	n/a	8
192.478	n/a	96239	dot_no1_OFF	21	n/a	n/a	8
193.798	n/a	96899	dot_no6_ON	16	n/a	n/a	8
194.386	n/a	97193	dot_no6_OFF	26	n/a	n/a	8
195.708	n/a	97854	dot_no4_ON	14	n/a	n/a	8
196.298	n/a	98149	dot_no4_OFF	24	n/a	n/a	8
197.618	n/a	98809	dot_no2_ON	12	n/a	n/a	8
198.208	n/a	99104	dot_no2_OFF	22	n/a	n/a	8
199.528	n/a	99764	dot_no7_ON	17	n/a	n/a	8
200.116	n/a	100058	dot_no7_OFF	27	n/a	n/a	8
201.438	n/a	100719	dot_no3_ON	13	n/a	n/a	8
202.028	n/a	101014	dot_no3_OFF	23	n/a	n/a	8
203.348	n/a	101674	dot_no8_ON	18	n/a	n/a	8
203.938	n/a	101969	dot_no8_OFF	28	n/a	n/a	8
205.258	n/a	102629	dot_no5_ON	15	n/a	n/a	8
205.848	n/a	102924	dot_no5_OFF	25	n/a	n/a	8
207.168	n/a	103584	dot_no2_ON	12	n/a	n/a	8
207.758	n/a	103879	dot_no2_OFF	22	n/a	n/a	8
209.078	n/a	104539	dot_no7_ON	17	n/a	n/a	8
209.668	n/a	104834	dot_no7_OFF	27	1-6-4-2-7-3-8-5-1-3	1-6-4-2-7-3-8-5-2-7	8
236.922	n/a	118461	learningBlock_5	35	n/a	n/a	8
236.938	n/a	118469	dot_no1_ON	11	n/a	n/a	8
237.528	n/a	118764	dot_no1_OFF	21	n/a	n/a	8
238.848	n/a	119424	dot_no6_ON	16	n/a	n/a	8
239.438	n/a	119719	dot_no6_OFF	26	n/a	n/a	8
240.758	n/a	120379	dot_no4_ON	14	n/a	n/a	8
241.348	n/a	120674	dot_no4_OFF	24	n/a	n/a	8
242.668	n/a	121334	dot_no2_ON	12	n/a	n/a	8
243.258	n/a	121629	dot_no2_OFF	22	n/a	n/a	8
244.578	n/a	122289	dot_no7_ON	17	n/a	n/a	8
245.168	n/a	122584	dot_no7_OFF	27	n/a	n/a	8
246.488	n/a	123244	dot_no3_ON	13	n/a	n/a	8
247.078	n/a	123539	dot_no3_OFF	23	n/a	n/a	8
248.398	n/a	124199	dot_no8_ON	18	n/a	n/a	8
248.988	n/a	124494	dot_no8_OFF	28	n/a	n/a	8
250.308	n/a	125154	dot_no5_ON	15	n/a	n/a	8
250.898	n/a	125449	dot_no5_OFF	25	n/a	n/a	8
252.218	n/a	126109	dot_no2_ON	12	n/a	n/a	8
252.808	n/a	126404	dot_no2_OFF	22	n/a	n/a	8
254.128	n/a	127064	dot_no7_ON	17	n/a	n/a	8
254.718	n/a	127359	dot_no7_OFF	27	1-6-5-2-8-4-3-7-1-5	1-6-4-2-7-3-8-5-2-7	8
276.426	n/a	138213	seqLearning_stop	50	n/a	n/a	8
277.953	n/a	138976.5	boundary	boundary	n/a	n/a	8
