onset	duration	sample	value	event_code	user_answer	correct_answer	target_count
0	n/a	0	break cnt	break cnt	n/a	n/a	8
57.014	n/a	28507	seqLearning_start	91	n/a	n/a	8
66.338	n/a	33169	learningBlock_1	31	n/a	n/a	8
66.356	n/a	33178	dot_no1_ON	11	n/a	n/a	8
66.944	n/a	33472	dot_no1_OFF	21	n/a	n/a	8
68.266	n/a	34133	dot_no6_ON	16	n/a	n/a	8
68.854	n/a	34427	dot_no6_OFF	26	n/a	n/a	8
70.176	n/a	35088	dot_no4_ON	14	n/a	n/a	8
70.764	n/a	35382	dot_no4_OFF	24	n/a	n/a	8
72.086	n/a	36043	dot_no2_ON	12	n/a	n/a	8
72.674	n/a	36337	dot_no2_OFF	22	n/a	n/a	8
73.996	n/a	36998	dot_no7_ON	17	n/a	n/a	8
74.586	n/a	37293	dot_no7_OFF	27	n/a	n/a	8
75.906	n/a	37953	dot_no3_ON	13	n/a	n/a	8
76.494	n/a	38247	dot_no3_OFF	23	n/a	n/a	8
77.816	n/a	38908	dot_no8_ON	18	n/a	n/a	8
78.406	n/a	39203	dot_no8_OFF	28	n/a	n/a	8
79.726	n/a	39863	dot_no5_ON	15	n/a	n/a	8
80.316	n/a	40158	dot_no5_OFF	25	n/a	n/a	8
81.636	n/a	40818	dot_no2_ON	12	n/a	n/a	8
82.226	n/a	41113	dot_no2_OFF	22	n/a	n/a	8
83.546	n/a	41773	dot_no7_ON	17	n/a	n/a	8
84.134	n/a	42067	dot_no7_OFF	27	1-8-6-7-3-5-4-2-1-8	1-6-4-2-7-3-8-5-2-7	8
119.922	n/a	59961	learningBlock_2	32	n/a	n/a	8
119.936	n/a	59968	dot_no1_ON	11	n/a	n/a	8
120.524	n/a	60262	dot_no1_OFF	21	n/a	n/a	8
121.846	n/a	60923	dot_no6_ON	16	n/a	n/a	8
122.434	n/a	61217	dot_no6_OFF	26	n/a	n/a	8
123.756	n/a	61878	dot_no4_ON	14	n/a	n/a	8
124.344	n/a	62172	dot_no4_OFF	24	n/a	n/a	8
125.666	n/a	62833	dot_no2_ON	12	n/a	n/a	8
126.256	n/a	63128	dot_no2_OFF	22	n/a	n/a	8
127.576	n/a	63788	dot_no7_ON	17	n/a	n/a	8
128.164	n/a	64082	dot_no7_OFF	27	n/a	n/a	8
129.486	n/a	64743	dot_no3_ON	13	n/a	n/a	8
130.074	n/a	65037	dot_no3_OFF	23	n/a	n/a	8
131.396	n/a	65698	dot_no8_ON	18	n/a	n/a	8
131.984	n/a	65992	dot_no8_OFF	28	n/a	n/a	8
133.306	n/a	66653	dot_no5_ON	15	n/a	n/a	8
133.896	n/a	66948	dot_no5_OFF	25	n/a	n/a	8
135.216	n/a	67608	dot_no2_ON	12	n/a	n/a	8
135.804	n/a	67902	dot_no2_OFF	22	n/a	n/a	8
137.126	n/a	68563	dot_no7_ON	17	n/a	n/a	8
137.716	n/a	68858	dot_no7_OFF	27	1-8-6-4-7-3-5-2-7-4	1-6-4-2-7-3-8-5-2-7	8
173.618	n/a	86809	learningBlock_3	33	n/a	n/a	8
173.626	n/a	86813	dot_no1_ON	11	n/a	n/a	8
174.216	n/a	87108	dot_no1_OFF	21	n/a	n/a	8
175.536	n/a	87768	dot_no6_ON	16	n/a	n/a	8
176.126	n/a	88063	dot_no6_OFF	26	n/a	n/a	8
177.446	n/a	88723	dot_no4_ON	14	n/a	n/a	8
178.036	n/a	89018	dot_no4_OFF	24	n/a	n/a	8
179.356	n/a	89678	dot_no2_ON	12	n/a	n/a	8
179.946	n/a	89973	dot_no2_OFF	22	n/a	n/a	8
181.266	n/a	90633	dot_no7_ON	17	n/a	n/a	8
181.856	n/a	90928	dot_no7_OFF	27	n/a	n/a	8
183.176	n/a	91588	dot_no3_ON	13	n/a	n/a	8
183.766	n/a	91883	dot_no3_OFF	23	n/a	n/a	8
185.086	n/a	92543	dot_no8_ON	18	n/a	n/a	8
185.676	n/a	92838	dot_no8_OFF	28	n/a	n/a	8
186.996	n/a	93498	dot_no5_ON	15	n/a	n/a	8
187.586	n/a	93793	dot_no5_OFF	25	n/a	n/a	8
188.906	n/a	94453	dot_no2_ON	12	n/a	n/a	8
189.496	n/a	94748	dot_no2_OFF	22	n/a	n/a	8
190.816	n/a	95408	dot_no7_ON	17	n/a	n/a	8
191.406	n/a	95703	dot_no7_OFF	27	1-2-6-4-7-3-5-5-4-7	1-6-4-2-7-3-8-5-2-7	8
222.554	n/a	111277	learningBlock_4	34	n/a	n/a	8
222.566	n/a	111283	dot_no1_ON	11	n/a	n/a	8
223.156	n/a	111578	dot_no1_OFF	21	n/a	n/a	8
224.476	n/a	112238	dot_no6_ON	16	n/a	n/a	8
225.066	n/a	112533	dot_no6_OFF	26	n/a	n/a	8
226.386	n/a	113193	dot_no4_ON	14	n/a	n/a	8
226.976	n/a	113488	dot_no4_OFF	24	n/a	n/a	8
228.296	n/a	114148	dot_no2_ON	12	n/a	n/a	8
228.886	n/a	114443	dot_no2_OFF	22	n/a	n/a	8
230.206	n/a	115103	dot_no7_ON	17	n/a	n/a	8
230.796	n/a	115398	dot_no7_OFF	27	n/a	n/a	8
232.116	n/a	116058	dot_no3_ON	13	n/a	n/a	8
232.706	n/a	116353	dot_no3_OFF	23	n/a	n/a	8
234.026	n/a	117013	dot_no8_ON	18	n/a	n/a	8
234.616	n/a	117308	dot_no8_OFF	28	n/a	n/a	8
235.936	n/a	117968	dot_no5_ON	15	n/a	n/a	8
236.526	n/a	118263	dot_no5_OFF	25	n/a	n/a	8
237.846	n/a	118923	dot_no2_ON	12	n/a	n/a	8
238.436	n/a	119218	dot_no2_OFF	22	n/a	n/a	8
239.756	n/a	119878	dot_no7_ON	17	n/a	n/a	8
240.346	n/a	120173	dot_no7_OFF	27	1-2-6-4-7-3-8-5-4-7	1-6-4-2-7-3-8-5-2-7	8
276.314	n/a	138157	learningBlock_5	35	n/a	n/a	8
276.326	n/a	138163	dot_no1_ON	11	n/a	n/a	8
276.916	n/a	138458	dot_no1_OFF	21	n/a	n/a	8
278.238	n/a	139119	dot_no6_ON	16	n/a	n/a	8
278.826	n/a	139413	dot_no6_OFF	26	n/a	n/a	8
280.146	n/a	140073	dot_no4_ON	14	n/a	n/a	8
280.736	n/a	140368	dot_no4_OFF	24	n/a	n/a	8
282.056	n/a	141028	dot_no2_ON	12	n/a	n/a	8
282.646	n/a	141323	dot_no2_OFF	22	n/a	n/a	8
283.966	n/a	141983	dot_no7_ON	17	n/a	n/a	8
284.556	n/a	142278	dot_no7_OFF	27	n/a	n/a	8
285.878	n/a	142939	dot_no3_ON	13	n/a	n/a	8
286.466	n/a	143233	dot_no3_OFF	23	n/a	n/a	8
287.788	n/a	143894	dot_no8_ON	18	n/a	n/a	8
288.376	n/a	144188	dot_no8_OFF	28	n/a	n/a	8
289.696	n/a	144848	dot_no5_ON	15	n/a	n/a	8
290.286	n/a	145143	dot_no5_OFF	25	n/a	n/a	8
291.606	n/a	145803	dot_no2_ON	12	n/a	n/a	8
292.196	n/a	146098	dot_no2_OFF	22	n/a	n/a	8
293.518	n/a	146759	dot_no7_ON	17	n/a	n/a	8
294.106	n/a	147053	dot_no7_OFF	27	1-6-4-2-7-3-8-5-1-2	1-6-4-2-7-3-8-5-2-7	8
316.052	n/a	158026	seqLearning_stop	50	n/a	n/a	8
317.555	n/a	158777.5	boundary	boundary	n/a	n/a	8
