onset	duration	sample	value	event_code	user_answer	correct_answer	target_count
0	n/a	0	break cnt	break cnt	n/a	n/a	8
32.264	n/a	16132	seqLearning_start	91	n/a	n/a	8
38.538	n/a	19269	learningBlock_1	31	n/a	n/a	8
38.564	n/a	19282	dot_no1_ON	11	n/a	n/a	8
39.154	n/a	19577	dot_no1_OFF	21	n/a	n/a	8
40.472	n/a	20236	dot_no6_ON	16	n/a	n/a	8
41.052	n/a	20526	dot_no6_OFF	26	n/a	n/a	8
42.372	n/a	21186	dot_no4_ON	14	n/a	n/a	8
42.952	n/a	21476	dot_no4_OFF	24	n/a	n/a	8
44.272	n/a	22136	dot_no2_ON	12	n/a	n/a	8
44.852	n/a	22426	dot_no2_OFF	22	n/a	n/a	8
46.172	n/a	23086	dot_no7_ON	17	n/a	n/a	8
46.752	n/a	23376	dot_no7_OFF	27	n/a	n/a	8
48.072	n/a	24036	dot_no3_ON	13	n/a	n/a	8
48.652	n/a	24326	dot_no3_OFF	23	n/a	n/a	8
49.972	n/a	24986	dot_no8_ON	18	n/a	n/a	8
50.552	n/a	25276	dot_no8_OFF	28	n/a	n/a	8
51.872	n/a	25936	dot_no5_ON	15	n/a	n/a	8
52.452	n/a	26226	dot_no5_OFF	25	n/a	n/a	8
53.772	n/a	26886	dot_no2_ON	12	n/a	n/a	8
54.352	n/a	27176	dot_no2_OFF	22	n/a	n/a	8
55.672	n/a	27836	dot_no7_ON	17	n/a	n/a	8
56.252	n/a	28126	dot_no7_OFF	27	1-6-4-2-7-3-5-8-6-7	1-6-4-2-7-3-8-5-2-7	8
95.196	n/a	47598	learningBlock_2	32	n/a	n/a	8
95.204	n/a	47602	dot_no1_ON	11	n/a	n/a	8
95.784	n/a	47892	dot_no1_OFF	21	n/a	n/a	8
97.104	n/a	48552	dot_no6_ON	16	n/a	n/a	8
97.684	n/a	48842	dot_no6_OFF	26	n/a	n/a	8
99.004	n/a	49502	dot_no4_ON	14	n/a	n/a	8
99.584	n/a	49792	dot_no4_OFF	24	n/a	n/a	8
100.904	n/a	50452	dot_no2_ON	12	n/a	n/a	8
101.484	n/a	50742	dot_no2_OFF	22	n/a	n/a	8
102.804	n/a	51402	dot_no7_ON	17	n/a	n/a	8
103.394	n/a	51697	dot_no7_OFF	27	n/a	n/a	8
104.714	n/a	52357	dot_no3_ON	13	n/a	n/a	8
105.294	n/a	52647	dot_no3_OFF	23	n/a	n/a	8
106.614	n/a	53307	dot_no8_ON	18	n/a	n/a	8
107.194	n/a	53597	dot_no8_OFF	28	n/a	n/a	8
108.514	n/a	54257	dot_no5_ON	15	n/a	n/a	8
109.094	n/a	54547	dot_no5_OFF	25	n/a	n/a	8
110.414	n/a	55207	dot_no2_ON	12	n/a	n/a	8
110.994	n/a	55497	dot_no2_OFF	22	n/a	n/a	8
112.314	n/a	56157	dot_no7_ON	17	n/a	n/a	8
112.894	n/a	56447	dot_no7_OFF	27	6-4-2-3-7-8-5-1-5-3	1-6-4-2-7-3-8-5-2-7	8
148.048	n/a	74024	learningBlock_3	33	n/a	n/a	8
148.054	n/a	74027	dot_no1_ON	11	n/a	n/a	8
148.634	n/a	74317	dot_no1_OFF	21	n/a	n/a	8
149.954	n/a	74977	dot_no6_ON	16	n/a	n/a	8
150.534	n/a	75267	dot_no6_OFF	26	n/a	n/a	8
151.854	n/a	75927	dot_no4_ON	14	n/a	n/a	8
152.434	n/a	76217	dot_no4_OFF	24	n/a	n/a	8
153.756	n/a	76878	dot_no2_ON	12	n/a	n/a	8
154.334	n/a	77167	dot_no2_OFF	22	n/a	n/a	8
155.654	n/a	77827	dot_no7_ON	17	n/a	n/a	8
156.234	n/a	78117	dot_no7_OFF	27	n/a	n/a	8
157.556	n/a	78778	dot_no3_ON	13	n/a	n/a	8
158.136	n/a	79068	dot_no3_OFF	23	n/a	n/a	8
159.456	n/a	79728	dot_no8_ON	18	n/a	n/a	8
160.036	n/a	80018	dot_no8_OFF	28	n/a	n/a	8
161.356	n/a	80678	dot_no5_ON	15	n/a	n/a	8
161.936	n/a	80968	dot_no5_OFF	25	n/a	n/a	8
163.256	n/a	81628	dot_no2_ON	12	n/a	n/a	8
163.836	n/a	81918	dot_no2_OFF	22	n/a	n/a	8
165.156	n/a	82578	dot_no7_ON	17	n/a	n/a	8
165.736	n/a	82868	dot_no7_OFF	27	2-6-4-8-3-5-1-6-1-7	1-6-4-2-7-3-8-5-2-7	8
198.898	n/a	99449	learningBlock_4	34	n/a	n/a	8
198.906	n/a	99453	dot_no1_ON	11	n/a	n/a	8
199.486	n/a	99743	dot_no1_OFF	21	n/a	n/a	8
200.806	n/a	100403	dot_no6_ON	16	n/a	n/a	8
201.386	n/a	100693	dot_no6_OFF	26	n/a	n/a	8
202.706	n/a	101353	dot_no4_ON	14	n/a	n/a	8
203.286	n/a	101643	dot_no4_OFF	24	n/a	n/a	8
204.606	n/a	102303	dot_no2_ON	12	n/a	n/a	8
205.196	n/a	102598	dot_no2_OFF	22	n/a	n/a	8
206.516	n/a	103258	dot_no7_ON	17	n/a	n/a	8
207.096	n/a	103548	dot_no7_OFF	27	n/a	n/a	8
208.416	n/a	104208	dot_no3_ON	13	n/a	n/a	8
208.996	n/a	104498	dot_no3_OFF	23	n/a	n/a	8
210.316	n/a	105158	dot_no8_ON	18	n/a	n/a	8
210.896	n/a	105448	dot_no8_OFF	28	n/a	n/a	8
212.216	n/a	106108	dot_no5_ON	15	n/a	n/a	8
212.806	n/a	106403	dot_no5_OFF	25	n/a	n/a	8
214.126	n/a	107063	dot_no2_ON	12	n/a	n/a	8
214.706	n/a	107353	dot_no2_OFF	22	n/a	n/a	8
216.026	n/a	108013	dot_no7_ON	17	n/a	n/a	8
216.606	n/a	108303	dot_no7_OFF	27	5-3-1-6-4-2-8-6-1-7	1-6-4-2-7-3-8-5-2-7	8
244.53	n/a	122265	learningBlock_5	35	n/a	n/a	8
244.536	n/a	122268	dot_no1_ON	11	n/a	n/a	8
245.118	n/a	122559	dot_no1_OFF	21	n/a	n/a	8
246.438	n/a	123219	dot_no6_ON	16	n/a	n/a	8
247.018	n/a	123509	dot_no6_OFF	26	n/a	n/a	8
248.338	n/a	124169	dot_no4_ON	14	n/a	n/a	8
248.918	n/a	124459	dot_no4_OFF	24	n/a	n/a	8
250.238	n/a	125119	dot_no2_ON	12	n/a	n/a	8
250.818	n/a	125409	dot_no2_OFF	22	n/a	n/a	8
252.138	n/a	126069	dot_no7_ON	17	n/a	n/a	8
252.718	n/a	126359	dot_no7_OFF	27	n/a	n/a	8
254.038	n/a	127019	dot_no3_ON	13	n/a	n/a	8
254.618	n/a	127309	dot_no3_OFF	23	n/a	n/a	8
255.938	n/a	127969	dot_no8_ON	18	n/a	n/a	8
256.518	n/a	128259	dot_no8_OFF	28	n/a	n/a	8
257.838	n/a	128919	dot_no5_ON	15	n/a	n/a	8
258.418	n/a	129209	dot_no5_OFF	25	n/a	n/a	8
259.738	n/a	129869	dot_no2_ON	12	n/a	n/a	8
260.318	n/a	130159	dot_no2_OFF	22	n/a	n/a	8
261.638	n/a	130819	dot_no7_ON	17	n/a	n/a	8
262.228	n/a	131114	dot_no7_OFF	27	6-5-1-3-4-8-7-2-8-7	1-6-4-2-7-3-8-5-2-7	8
287.362	n/a	143681	seqLearning_stop	50	n/a	n/a	8
291.227	n/a	145613.5	boundary	boundary	n/a	n/a	8
