onset	duration	sample	value	event_code	user_answer	correct_answer	target_count
0	n/a	0	break cnt	break cnt	n/a	n/a	8
34.664	n/a	17332	seqLearning_start	91	n/a	n/a	8
40.922	n/a	20461	learningBlock_1	31	n/a	n/a	8
40.962	n/a	20481	dot_no1_ON	11	n/a	n/a	8
41.552	n/a	20776	dot_no1_OFF	21	n/a	n/a	8
42.872	n/a	21436	dot_no6_ON	16	n/a	n/a	8
43.452	n/a	21726	dot_no6_OFF	26	n/a	n/a	8
44.772	n/a	22386	dot_no4_ON	14	n/a	n/a	8
45.352	n/a	22676	dot_no4_OFF	24	n/a	n/a	8
46.672	n/a	23336	dot_no2_ON	12	n/a	n/a	8
47.252	n/a	23626	dot_no2_OFF	22	n/a	n/a	8
48.572	n/a	24286	dot_no7_ON	17	n/a	n/a	8
49.152	n/a	24576	dot_no7_OFF	27	n/a	n/a	8
50.472	n/a	25236	dot_no3_ON	13	n/a	n/a	8
51.052	n/a	25526	dot_no3_OFF	23	n/a	n/a	8
52.372	n/a	26186	dot_no8_ON	18	n/a	n/a	8
52.952	n/a	26476	dot_no8_OFF	28	n/a	n/a	8
54.272	n/a	27136	dot_no5_ON	15	n/a	n/a	8
54.852	n/a	27426	dot_no5_OFF	25	n/a	n/a	8
56.172	n/a	28086	dot_no2_ON	12	n/a	n/a	8
56.752	n/a	28376	dot_no2_OFF	22	n/a	n/a	8
58.072	n/a	29036	dot_no7_ON	17	n/a	n/a	8
58.652	n/a	29326	dot_no7_OFF	27	1-4-3-7-6-2-5-6-1-8	1-6-4-2-7-3-8-5-2-7	8
123.986	n/a	61993	learningBlock_2	32	n/a	n/a	8
123.994	n/a	61997	dot_no1_ON	11	n/a	n/a	8
124.584	n/a	62292	dot_no1_OFF	21	n/a	n/a	8
125.904	n/a	62952	dot_no6_ON	16	n/a	n/a	8
126.484	n/a	63242	dot_no6_OFF	26	n/a	n/a	8
127.804	n/a	63902	dot_no4_ON	14	n/a	n/a	8
128.384	n/a	64192	dot_no4_OFF	24	n/a	n/a	8
129.704	n/a	64852	dot_no2_ON	12	n/a	n/a	8
130.284	n/a	65142	dot_no2_OFF	22	n/a	n/a	8
131.604	n/a	65802	dot_no7_ON	17	n/a	n/a	8
132.184	n/a	66092	dot_no7_OFF	27	n/a	n/a	8
133.504	n/a	66752	dot_no3_ON	13	n/a	n/a	8
134.084	n/a	67042	dot_no3_OFF	23	n/a	n/a	8
135.404	n/a	67702	dot_no8_ON	18	n/a	n/a	8
135.984	n/a	67992	dot_no8_OFF	28	n/a	n/a	8
137.304	n/a	68652	dot_no5_ON	15	n/a	n/a	8
137.884	n/a	68942	dot_no5_OFF	25	n/a	n/a	8
139.204	n/a	69602	dot_no2_ON	12	n/a	n/a	8
139.784	n/a	69892	dot_no2_OFF	22	n/a	n/a	8
141.104	n/a	70552	dot_no7_ON	17	n/a	n/a	8
141.694	n/a	70847	dot_no7_OFF	27	1-6-3-7-2-5-4-8-6-2	1-6-4-2-7-3-8-5-2-7	8
171.566	n/a	85783	learningBlock_3	33	n/a	n/a	8
171.574	n/a	85787	dot_no1_ON	11	n/a	n/a	8
172.154	n/a	86077	dot_no1_OFF	21	n/a	n/a	8
173.474	n/a	86737	dot_no6_ON	16	n/a	n/a	8
174.054	n/a	87027	dot_no6_OFF	26	n/a	n/a	8
175.374	n/a	87687	dot_no4_ON	14	n/a	n/a	8
175.954	n/a	87977	dot_no4_OFF	24	n/a	n/a	8
177.274	n/a	88637	dot_no2_ON	12	n/a	n/a	8
177.854	n/a	88927	dot_no2_OFF	22	n/a	n/a	8
179.174	n/a	89587	dot_no7_ON	17	n/a	n/a	8
179.754	n/a	89877	dot_no7_OFF	27	n/a	n/a	8
181.074	n/a	90537	dot_no3_ON	13	n/a	n/a	8
181.654	n/a	90827	dot_no3_OFF	23	n/a	n/a	8
182.974	n/a	91487	dot_no8_ON	18	n/a	n/a	8
183.554	n/a	91777	dot_no8_OFF	28	n/a	n/a	8
184.874	n/a	92437	dot_no5_ON	15	n/a	n/a	8
185.454	n/a	92727	dot_no5_OFF	25	n/a	n/a	8
186.774	n/a	93387	dot_no2_ON	12	n/a	n/a	8
187.364	n/a	93682	dot_no2_OFF	22	n/a	n/a	8
188.684	n/a	94342	dot_no7_ON	17	n/a	n/a	8
189.264	n/a	94632	dot_no7_OFF	27	1-5-3-7-6-2-2-4-8-1	1-6-4-2-7-3-8-5-2-7	8
242.558	n/a	121279	learningBlock_4	34	n/a	n/a	8
242.586	n/a	121293	dot_no1_ON	11	n/a	n/a	8
243.176	n/a	121588	dot_no1_OFF	21	n/a	n/a	8
244.496	n/a	122248	dot_no6_ON	16	n/a	n/a	8
245.076	n/a	122538	dot_no6_OFF	26	n/a	n/a	8
246.396	n/a	123198	dot_no4_ON	14	n/a	n/a	8
246.976	n/a	123488	dot_no4_OFF	24	n/a	n/a	8
248.296	n/a	124148	dot_no2_ON	12	n/a	n/a	8
248.876	n/a	124438	dot_no2_OFF	22	n/a	n/a	8
250.196	n/a	125098	dot_no7_ON	17	n/a	n/a	8
250.776	n/a	125388	dot_no7_OFF	27	n/a	n/a	8
252.096	n/a	126048	dot_no3_ON	13	n/a	n/a	8
252.676	n/a	126338	dot_no3_OFF	23	n/a	n/a	8
253.996	n/a	126998	dot_no8_ON	18	n/a	n/a	8
254.606	n/a	127303	dot_no8_OFF	28	n/a	n/a	8
255.926	n/a	127963	dot_no5_ON	15	n/a	n/a	8
256.516	n/a	128258	dot_no5_OFF	25	n/a	n/a	8
257.836	n/a	128918	dot_no2_ON	12	n/a	n/a	8
258.426	n/a	129213	dot_no2_OFF	22	n/a	n/a	8
259.746	n/a	129873	dot_no7_ON	17	n/a	n/a	8
260.326	n/a	130163	dot_no7_OFF	27	1-5-3-7-2-4-6-8-5-1	1-6-4-2-7-3-8-5-2-7	8
329.28	n/a	164640	learningBlock_5	35	n/a	n/a	8
329.288	n/a	164644	dot_no1_ON	11	n/a	n/a	8
329.868	n/a	164934	dot_no1_OFF	21	n/a	n/a	8
331.188	n/a	165594	dot_no6_ON	16	n/a	n/a	8
331.768	n/a	165884	dot_no6_OFF	26	n/a	n/a	8
333.088	n/a	166544	dot_no4_ON	14	n/a	n/a	8
333.678	n/a	166839	dot_no4_OFF	24	n/a	n/a	8
334.998	n/a	167499	dot_no2_ON	12	n/a	n/a	8
335.578	n/a	167789	dot_no2_OFF	22	n/a	n/a	8
336.898	n/a	168449	dot_no7_ON	17	n/a	n/a	8
337.478	n/a	168739	dot_no7_OFF	27	n/a	n/a	8
338.798	n/a	169399	dot_no3_ON	13	n/a	n/a	8
339.378	n/a	169689	dot_no3_OFF	23	n/a	n/a	8
340.698	n/a	170349	dot_no8_ON	18	n/a	n/a	8
341.278	n/a	170639	dot_no8_OFF	28	n/a	n/a	8
342.598	n/a	171299	dot_no5_ON	15	n/a	n/a	8
343.178	n/a	171589	dot_no5_OFF	25	n/a	n/a	8
344.498	n/a	172249	dot_no2_ON	12	n/a	n/a	8
345.078	n/a	172539	dot_no2_OFF	22	n/a	n/a	8
346.398	n/a	173199	dot_no7_ON	17	n/a	n/a	8
346.988	n/a	173494	dot_no7_OFF	27	1-7-5-8-6-3-4-2-3-2	1-6-4-2-7-3-8-5-2-7	8
389.812	n/a	194906	seqLearning_stop	50	n/a	n/a	8
394.169	n/a	197084.5	boundary	boundary	n/a	n/a	8
