onset	duration	sample	value	event_code	user_answer	correct_answer
0	n/a	0	break cnt	break cnt	n/a	n/a
31.758	n/a	15879	symbolSearch_start	92	n/a	n/a
37.65	n/a	18825	newPage	20	n/a	n/a
43.054	n/a	21527	trialResponse	14	0	0
47.344	n/a	23672	trialResponse	14	1	1
52.054	n/a	26027	trialResponse	14	0	0
56.464	n/a	28232	trialResponse	14	0	0
62.926	n/a	31463	trialResponse	14	0	0
67.238	n/a	33619	trialResponse	14	1	1
72.528	n/a	36264	trialResponse	14	0	0
78.102	n/a	39051	trialResponse	14	1	1
83.464	n/a	41732	trialResponse	14	0	0
89.656	n/a	44828	trialResponse	14	0	0
95.126	n/a	47563	trialResponse	14	0	0
97.63	n/a	48815	trialResponse	14	1	1
100.894	n/a	50447	trialResponse	14	0	0
103.718	n/a	51859	trialResponse	14	1	1
106.448	n/a	53224	trialResponse	14	1	1
107.656	n/a	53828	newPage	20	n/a	n/a
112.174	n/a	56087	trialResponse	14	1	1
114.39	n/a	57195	trialResponse	14	1	1
120.206	n/a	60103	trialResponse	14	0	0
122.598	n/a	61299	trialResponse	14	1	1
131.462	n/a	65731	trialResponse	14	0	0
138.08	n/a	69040	trialResponse	14	1	1
143.854	n/a	71927	trialResponse	14	0	0
148.398	n/a	74199	trialResponse	14	1	1
153.966	n/a	76983	trialResponse	14	1	1
160.704	n/a	80352	trialResponse	14	0	0
160.72	n/a	80360	newPage	20	n/a	n/a
164.451	n/a	82225.5	boundary	boundary	n/a	n/a
