onset	duration	sample	value	event_code	user_answer	correct_answer	target_count
0	n/a	0	break cnt	break cnt	n/a	n/a	8
90.132	n/a	45066	seqLearning_start	91	n/a	n/a	8
99.454	n/a	49727	learningBlock_1	31	n/a	n/a	8
99.502	n/a	49751	dot_no1_ON	11	n/a	n/a	8
100.09	n/a	50045	dot_no1_OFF	21	n/a	n/a	8
101.41	n/a	50705	dot_no6_ON	16	n/a	n/a	8
102	n/a	51000	dot_no6_OFF	26	n/a	n/a	8
103.32	n/a	51660	dot_no4_ON	14	n/a	n/a	8
103.91	n/a	51955	dot_no4_OFF	24	n/a	n/a	8
105.23	n/a	52615	dot_no2_ON	12	n/a	n/a	8
105.82	n/a	52910	dot_no2_OFF	22	n/a	n/a	8
107.14	n/a	53570	dot_no7_ON	17	n/a	n/a	8
107.73	n/a	53865	dot_no7_OFF	27	n/a	n/a	8
109.05	n/a	54525	dot_no3_ON	13	n/a	n/a	8
109.64	n/a	54820	dot_no3_OFF	23	n/a	n/a	8
110.96	n/a	55480	dot_no8_ON	18	n/a	n/a	8
111.55	n/a	55775	dot_no8_OFF	28	n/a	n/a	8
112.87	n/a	56435	dot_no5_ON	15	n/a	n/a	8
113.46	n/a	56730	dot_no5_OFF	25	n/a	n/a	8
114.78	n/a	57390	dot_no2_ON	12	n/a	n/a	8
115.37	n/a	57685	dot_no2_OFF	22	n/a	n/a	8
116.69	n/a	58345	dot_no7_ON	17	n/a	n/a	8
117.28	n/a	58640	dot_no7_OFF	27	1-6-3-4-7-2-5-8-6-7	1-6-4-2-7-3-8-5-2-7	8
152.096	n/a	76048	learningBlock_2	32	n/a	n/a	8
152.11	n/a	76055	dot_no1_ON	11	n/a	n/a	8
152.7	n/a	76350	dot_no1_OFF	21	n/a	n/a	8
154.022	n/a	77011	dot_no6_ON	16	n/a	n/a	8
154.61	n/a	77305	dot_no6_OFF	26	n/a	n/a	8
155.93	n/a	77965	dot_no4_ON	14	n/a	n/a	8
156.52	n/a	78260	dot_no4_OFF	24	n/a	n/a	8
157.84	n/a	78920	dot_no2_ON	12	n/a	n/a	8
158.43	n/a	79215	dot_no2_OFF	22	n/a	n/a	8
159.752	n/a	79876	dot_no7_ON	17	n/a	n/a	8
160.34	n/a	80170	dot_no7_OFF	27	n/a	n/a	8
161.66	n/a	80830	dot_no3_ON	13	n/a	n/a	8
162.25	n/a	81125	dot_no3_OFF	23	n/a	n/a	8
163.57	n/a	81785	dot_no8_ON	18	n/a	n/a	8
164.16	n/a	82080	dot_no8_OFF	28	n/a	n/a	8
165.48	n/a	82740	dot_no5_ON	15	n/a	n/a	8
166.07	n/a	83035	dot_no5_OFF	25	n/a	n/a	8
167.39	n/a	83695	dot_no2_ON	12	n/a	n/a	8
167.98	n/a	83990	dot_no2_OFF	22	n/a	n/a	8
169.3	n/a	84650	dot_no7_ON	17	n/a	n/a	8
169.89	n/a	84945	dot_no7_OFF	27	1-6-8-3-7-2-4-5-7-8	1-6-4-2-7-3-8-5-2-7	8
202.81	n/a	101405	learningBlock_3	33	n/a	n/a	8
202.822	n/a	101411	dot_no1_ON	11	n/a	n/a	8
203.41	n/a	101705	dot_no1_OFF	21	n/a	n/a	8
204.732	n/a	102366	dot_no6_ON	16	n/a	n/a	8
205.32	n/a	102660	dot_no6_OFF	26	n/a	n/a	8
206.642	n/a	103321	dot_no4_ON	14	n/a	n/a	8
207.23	n/a	103615	dot_no4_OFF	24	n/a	n/a	8
208.552	n/a	104276	dot_no2_ON	12	n/a	n/a	8
209.14	n/a	104570	dot_no2_OFF	22	n/a	n/a	8
210.462	n/a	105231	dot_no7_ON	17	n/a	n/a	8
211.05	n/a	105525	dot_no7_OFF	27	n/a	n/a	8
212.372	n/a	106186	dot_no3_ON	13	n/a	n/a	8
212.96	n/a	106480	dot_no3_OFF	23	n/a	n/a	8
214.282	n/a	107141	dot_no8_ON	18	n/a	n/a	8
214.87	n/a	107435	dot_no8_OFF	28	n/a	n/a	8
216.192	n/a	108096	dot_no5_ON	15	n/a	n/a	8
216.78	n/a	108390	dot_no5_OFF	25	n/a	n/a	8
218.102	n/a	109051	dot_no2_ON	12	n/a	n/a	8
218.69	n/a	109345	dot_no2_OFF	22	n/a	n/a	8
220.012	n/a	110006	dot_no7_ON	17	n/a	n/a	8
220.6	n/a	110300	dot_no7_OFF	27	1-6-8-3-7-2-5-4-6-7	1-6-4-2-7-3-8-5-2-7	8
243.126	n/a	121563	learningBlock_4	34	n/a	n/a	8
243.142	n/a	121571	dot_no1_ON	11	n/a	n/a	8
243.73	n/a	121865	dot_no1_OFF	21	n/a	n/a	8
245.052	n/a	122526	dot_no6_ON	16	n/a	n/a	8
245.64	n/a	122820	dot_no6_OFF	26	n/a	n/a	8
246.962	n/a	123481	dot_no4_ON	14	n/a	n/a	8
247.55	n/a	123775	dot_no4_OFF	24	n/a	n/a	8
248.872	n/a	124436	dot_no2_ON	12	n/a	n/a	8
249.46	n/a	124730	dot_no2_OFF	22	n/a	n/a	8
250.782	n/a	125391	dot_no7_ON	17	n/a	n/a	8
251.37	n/a	125685	dot_no7_OFF	27	n/a	n/a	8
252.692	n/a	126346	dot_no3_ON	13	n/a	n/a	8
253.28	n/a	126640	dot_no3_OFF	23	n/a	n/a	8
254.602	n/a	127301	dot_no8_ON	18	n/a	n/a	8
255.19	n/a	127595	dot_no8_OFF	28	n/a	n/a	8
256.512	n/a	128256	dot_no5_ON	15	n/a	n/a	8
257.1	n/a	128550	dot_no5_OFF	25	n/a	n/a	8
258.422	n/a	129211	dot_no2_ON	12	n/a	n/a	8
259.01	n/a	129505	dot_no2_OFF	22	n/a	n/a	8
260.332	n/a	130166	dot_no7_ON	17	n/a	n/a	8
260.92	n/a	130460	dot_no7_OFF	27	1-6-4-2-8-8-7-5-3-2	1-6-4-2-7-3-8-5-2-7	8
290.39	n/a	145195	learningBlock_5	35	n/a	n/a	8
290.402	n/a	145201	dot_no1_ON	11	n/a	n/a	8
290.99	n/a	145495	dot_no1_OFF	21	n/a	n/a	8
292.312	n/a	146156	dot_no6_ON	16	n/a	n/a	8
292.902	n/a	146451	dot_no6_OFF	26	n/a	n/a	8
294.222	n/a	147111	dot_no4_ON	14	n/a	n/a	8
294.81	n/a	147405	dot_no4_OFF	24	n/a	n/a	8
296.132	n/a	148066	dot_no2_ON	12	n/a	n/a	8
296.722	n/a	148361	dot_no2_OFF	22	n/a	n/a	8
298.042	n/a	149021	dot_no7_ON	17	n/a	n/a	8
298.632	n/a	149316	dot_no7_OFF	27	n/a	n/a	8
299.952	n/a	149976	dot_no3_ON	13	n/a	n/a	8
300.54	n/a	150270	dot_no3_OFF	23	n/a	n/a	8
301.862	n/a	150931	dot_no8_ON	18	n/a	n/a	8
302.452	n/a	151226	dot_no8_OFF	28	n/a	n/a	8
303.772	n/a	151886	dot_no5_ON	15	n/a	n/a	8
304.36	n/a	152180	dot_no5_OFF	25	n/a	n/a	8
305.682	n/a	152841	dot_no2_ON	12	n/a	n/a	8
306.27	n/a	153135	dot_no2_OFF	22	n/a	n/a	8
307.592	n/a	153796	dot_no7_ON	17	n/a	n/a	8
308.18	n/a	154090	dot_no7_OFF	27	1-6-4-2-7-8-3-5-2-7	1-6-4-2-7-3-8-5-2-7	8
333.612	n/a	166806	seqLearning_stop	50	n/a	n/a	8
335.103	n/a	167551.5	boundary	boundary	n/a	n/a	8
