onset	duration	sample	value	event_code	user_answer	correct_answer	target_count
0	n/a	0	break cnt	break cnt	n/a	n/a	8
37.482	n/a	18741	seqLearning_start	91	n/a	n/a	8
43.76	n/a	21880	learningBlock_1	31	n/a	n/a	8
43.786	n/a	21893	dot_no1_ON	11	n/a	n/a	8
44.376	n/a	22188	dot_no1_OFF	21	n/a	n/a	8
45.696	n/a	22848	dot_no6_ON	16	n/a	n/a	8
46.276	n/a	23138	dot_no6_OFF	26	n/a	n/a	8
47.596	n/a	23798	dot_no4_ON	14	n/a	n/a	8
48.176	n/a	24088	dot_no4_OFF	24	n/a	n/a	8
49.496	n/a	24748	dot_no2_ON	12	n/a	n/a	8
50.076	n/a	25038	dot_no2_OFF	22	n/a	n/a	8
51.396	n/a	25698	dot_no7_ON	17	n/a	n/a	8
51.976	n/a	25988	dot_no7_OFF	27	n/a	n/a	8
53.296	n/a	26648	dot_no3_ON	13	n/a	n/a	8
53.876	n/a	26938	dot_no3_OFF	23	n/a	n/a	8
55.196	n/a	27598	dot_no8_ON	18	n/a	n/a	8
55.776	n/a	27888	dot_no8_OFF	28	n/a	n/a	8
57.096	n/a	28548	dot_no5_ON	15	n/a	n/a	8
57.676	n/a	28838	dot_no5_OFF	25	n/a	n/a	8
58.996	n/a	29498	dot_no2_ON	12	n/a	n/a	8
59.576	n/a	29788	dot_no2_OFF	22	n/a	n/a	8
60.896	n/a	30448	dot_no7_ON	17	n/a	n/a	8
61.476	n/a	30738	dot_no7_OFF	27	1-6-2-8-4-5-7-3-2-7	1-6-4-2-7-3-8-5-2-7	8
103.548	n/a	51774	learningBlock_2	32	n/a	n/a	8
103.556	n/a	51778	dot_no1_ON	11	n/a	n/a	8
104.136	n/a	52068	dot_no1_OFF	21	n/a	n/a	8
105.456	n/a	52728	dot_no6_ON	16	n/a	n/a	8
106.046	n/a	53023	dot_no6_OFF	26	n/a	n/a	8
107.366	n/a	53683	dot_no4_ON	14	n/a	n/a	8
107.946	n/a	53973	dot_no4_OFF	24	n/a	n/a	8
109.266	n/a	54633	dot_no2_ON	12	n/a	n/a	8
109.846	n/a	54923	dot_no2_OFF	22	n/a	n/a	8
111.166	n/a	55583	dot_no7_ON	17	n/a	n/a	8
111.748	n/a	55874	dot_no7_OFF	27	n/a	n/a	8
113.066	n/a	56533	dot_no3_ON	13	n/a	n/a	8
113.646	n/a	56823	dot_no3_OFF	23	n/a	n/a	8
114.966	n/a	57483	dot_no8_ON	18	n/a	n/a	8
115.546	n/a	57773	dot_no8_OFF	28	n/a	n/a	8
116.866	n/a	58433	dot_no5_ON	15	n/a	n/a	8
117.448	n/a	58724	dot_no5_OFF	25	n/a	n/a	8
118.768	n/a	59384	dot_no2_ON	12	n/a	n/a	8
119.348	n/a	59674	dot_no2_OFF	22	n/a	n/a	8
120.668	n/a	60334	dot_no7_ON	17	n/a	n/a	8
121.248	n/a	60624	dot_no7_OFF	27	1-6-4-8-5-2-7-3-2-6	1-6-4-2-7-3-8-5-2-7	8
148.69	n/a	74345	learningBlock_3	33	n/a	n/a	8
148.698	n/a	74349	dot_no1_ON	11	n/a	n/a	8
149.288	n/a	74644	dot_no1_OFF	21	n/a	n/a	8
150.608	n/a	75304	dot_no6_ON	16	n/a	n/a	8
151.188	n/a	75594	dot_no6_OFF	26	n/a	n/a	8
152.508	n/a	76254	dot_no4_ON	14	n/a	n/a	8
153.098	n/a	76549	dot_no4_OFF	24	n/a	n/a	8
154.418	n/a	77209	dot_no2_ON	12	n/a	n/a	8
154.998	n/a	77499	dot_no2_OFF	22	n/a	n/a	8
156.318	n/a	78159	dot_no7_ON	17	n/a	n/a	8
156.898	n/a	78449	dot_no7_OFF	27	n/a	n/a	8
158.228	n/a	79114	dot_no3_ON	13	n/a	n/a	8
158.808	n/a	79404	dot_no3_OFF	23	n/a	n/a	8
160.128	n/a	80064	dot_no8_ON	18	n/a	n/a	8
160.718	n/a	80359	dot_no8_OFF	28	n/a	n/a	8
162.038	n/a	81019	dot_no5_ON	15	n/a	n/a	8
162.618	n/a	81309	dot_no5_OFF	25	n/a	n/a	8
163.938	n/a	81969	dot_no2_ON	12	n/a	n/a	8
164.518	n/a	82259	dot_no2_OFF	22	n/a	n/a	8
165.838	n/a	82919	dot_no7_ON	17	n/a	n/a	8
166.418	n/a	83209	dot_no7_OFF	27	1-6-4-2-7-3-5-8-2-7	1-6-4-2-7-3-8-5-2-7	8
189.082	n/a	94541	learningBlock_4	34	n/a	n/a	8
189.088	n/a	94544	dot_no1_ON	11	n/a	n/a	8
189.668	n/a	94834	dot_no1_OFF	21	n/a	n/a	8
190.988	n/a	95494	dot_no6_ON	16	n/a	n/a	8
191.568	n/a	95784	dot_no6_OFF	26	n/a	n/a	8
192.888	n/a	96444	dot_no4_ON	14	n/a	n/a	8
193.468	n/a	96734	dot_no4_OFF	24	n/a	n/a	8
194.788	n/a	97394	dot_no2_ON	12	n/a	n/a	8
195.368	n/a	97684	dot_no2_OFF	22	n/a	n/a	8
196.688	n/a	98344	dot_no7_ON	17	n/a	n/a	8
197.27	n/a	98635	dot_no7_OFF	27	n/a	n/a	8
198.588	n/a	99294	dot_no3_ON	13	n/a	n/a	8
199.168	n/a	99584	dot_no3_OFF	23	n/a	n/a	8
200.488	n/a	100244	dot_no8_ON	18	n/a	n/a	8
201.068	n/a	100534	dot_no8_OFF	28	n/a	n/a	8
202.388	n/a	101194	dot_no5_ON	15	n/a	n/a	8
202.978	n/a	101489	dot_no5_OFF	25	n/a	n/a	8
204.298	n/a	102149	dot_no2_ON	12	n/a	n/a	8
204.878	n/a	102439	dot_no2_OFF	22	n/a	n/a	8
206.198	n/a	103099	dot_no7_ON	17	n/a	n/a	8
206.78	n/a	103390	dot_no7_OFF	27	1-6-4-2-7-3-8-5-2-7	1-6-4-2-7-3-8-5-2-7	8
226.012	n/a	113006	learningBlock_5	35	n/a	n/a	8
226.02	n/a	113010	dot_no1_ON	11	n/a	n/a	8
226.6	n/a	113300	dot_no1_OFF	21	n/a	n/a	8
227.92	n/a	113960	dot_no6_ON	16	n/a	n/a	8
228.5	n/a	114250	dot_no6_OFF	26	n/a	n/a	8
229.82	n/a	114910	dot_no4_ON	14	n/a	n/a	8
230.4	n/a	115200	dot_no4_OFF	24	n/a	n/a	8
231.72	n/a	115860	dot_no2_ON	12	n/a	n/a	8
232.3	n/a	116150	dot_no2_OFF	22	n/a	n/a	8
233.62	n/a	116810	dot_no7_ON	17	n/a	n/a	8
234.2	n/a	117100	dot_no7_OFF	27	n/a	n/a	8
235.52	n/a	117760	dot_no3_ON	13	n/a	n/a	8
236.1	n/a	118050	dot_no3_OFF	23	n/a	n/a	8
237.42	n/a	118710	dot_no8_ON	18	n/a	n/a	8
238	n/a	119000	dot_no8_OFF	28	n/a	n/a	8
239.32	n/a	119660	dot_no5_ON	15	n/a	n/a	8
239.9	n/a	119950	dot_no5_OFF	25	n/a	n/a	8
241.22	n/a	120610	dot_no2_ON	12	n/a	n/a	8
241.8	n/a	120900	dot_no2_OFF	22	n/a	n/a	8
243.12	n/a	121560	dot_no7_ON	17	n/a	n/a	8
243.71	n/a	121855	dot_no7_OFF	27	1-6-4-2-7-3-8-5-2-7	1-6-4-2-7-3-8-5-2-7	8
261.642	n/a	130821	seqLearning_stop	50	n/a	n/a	8
266.333	n/a	133166.5	boundary	boundary	n/a	n/a	8
