onset	duration	sample	value	event_code	user_answer	correct_answer	target_count
0	n/a	0	break cnt	break cnt	n/a	n/a	8
131.622	n/a	65811	seqLearning_start	91	n/a	n/a	8
140.47	n/a	70235	learningBlock_1	31	n/a	n/a	8
140.486	n/a	70243	dot_no1_ON	11	n/a	n/a	8
141.076	n/a	70538	dot_no1_OFF	21	n/a	n/a	8
142.396	n/a	71198	dot_no6_ON	16	n/a	n/a	8
142.984	n/a	71492	dot_no6_OFF	26	n/a	n/a	8
144.306	n/a	72153	dot_no4_ON	14	n/a	n/a	8
144.896	n/a	72448	dot_no4_OFF	24	n/a	n/a	8
146.216	n/a	73108	dot_no2_ON	12	n/a	n/a	8
146.804	n/a	73402	dot_no2_OFF	22	n/a	n/a	8
148.126	n/a	74063	dot_no7_ON	17	n/a	n/a	8
148.716	n/a	74358	dot_no7_OFF	27	n/a	n/a	8
150.036	n/a	75018	dot_no3_ON	13	n/a	n/a	8
150.626	n/a	75313	dot_no3_OFF	23	n/a	n/a	8
151.946	n/a	75973	dot_no8_ON	18	n/a	n/a	8
152.536	n/a	76268	dot_no8_OFF	28	n/a	n/a	8
153.856	n/a	76928	dot_no5_ON	15	n/a	n/a	8
154.444	n/a	77222	dot_no5_OFF	25	n/a	n/a	8
155.766	n/a	77883	dot_no2_ON	12	n/a	n/a	8
156.354	n/a	78177	dot_no2_OFF	22	n/a	n/a	8
157.676	n/a	78838	dot_no7_ON	17	n/a	n/a	8
158.264	n/a	79132	dot_no7_OFF	27	1-6-2-5-3-7-6-8-4-8	1-6-4-2-7-3-8-5-2-7	8
196.674	n/a	98337	learningBlock_2	32	n/a	n/a	8
196.686	n/a	98343	dot_no1_ON	11	n/a	n/a	8
197.284	n/a	98642	dot_no1_OFF	21	n/a	n/a	8
198.606	n/a	99303	dot_no6_ON	16	n/a	n/a	8
199.194	n/a	99597	dot_no6_OFF	26	n/a	n/a	8
200.516	n/a	100258	dot_no4_ON	14	n/a	n/a	8
201.104	n/a	100552	dot_no4_OFF	24	n/a	n/a	8
202.426	n/a	101213	dot_no2_ON	12	n/a	n/a	8
203.014	n/a	101507	dot_no2_OFF	22	n/a	n/a	8
204.336	n/a	102168	dot_no7_ON	17	n/a	n/a	8
204.926	n/a	102463	dot_no7_OFF	27	n/a	n/a	8
206.246	n/a	103123	dot_no3_ON	13	n/a	n/a	8
206.836	n/a	103418	dot_no3_OFF	23	n/a	n/a	8
208.156	n/a	104078	dot_no8_ON	18	n/a	n/a	8
208.744	n/a	104372	dot_no8_OFF	28	n/a	n/a	8
210.066	n/a	105033	dot_no5_ON	15	n/a	n/a	8
210.656	n/a	105328	dot_no5_OFF	25	n/a	n/a	8
211.976	n/a	105988	dot_no2_ON	12	n/a	n/a	8
212.564	n/a	106282	dot_no2_OFF	22	n/a	n/a	8
213.886	n/a	106943	dot_no7_ON	17	n/a	n/a	8
214.476	n/a	107238	dot_no7_OFF	27	1-5-2-3-7-4-5-1-2-8	1-6-4-2-7-3-8-5-2-7	8
242.088	n/a	121044	learningBlock_3	33	n/a	n/a	8
242.096	n/a	121048	dot_no1_ON	11	n/a	n/a	8
242.686	n/a	121343	dot_no1_OFF	21	n/a	n/a	8
244.006	n/a	122003	dot_no6_ON	16	n/a	n/a	8
244.596	n/a	122298	dot_no6_OFF	26	n/a	n/a	8
245.916	n/a	122958	dot_no4_ON	14	n/a	n/a	8
246.506	n/a	123253	dot_no4_OFF	24	n/a	n/a	8
247.826	n/a	123913	dot_no2_ON	12	n/a	n/a	8
248.416	n/a	124208	dot_no2_OFF	22	n/a	n/a	8
249.736	n/a	124868	dot_no7_ON	17	n/a	n/a	8
250.326	n/a	125163	dot_no7_OFF	27	n/a	n/a	8
251.646	n/a	125823	dot_no3_ON	13	n/a	n/a	8
252.236	n/a	126118	dot_no3_OFF	23	n/a	n/a	8
253.556	n/a	126778	dot_no8_ON	18	n/a	n/a	8
254.146	n/a	127073	dot_no8_OFF	28	n/a	n/a	8
255.466	n/a	127733	dot_no5_ON	15	n/a	n/a	8
256.056	n/a	128028	dot_no5_OFF	25	n/a	n/a	8
257.376	n/a	128688	dot_no2_ON	12	n/a	n/a	8
257.966	n/a	128983	dot_no2_OFF	22	n/a	n/a	8
259.286	n/a	129643	dot_no7_ON	17	n/a	n/a	8
259.876	n/a	129938	dot_no7_OFF	27	1-4-5-2-7-3-6-8-7-1	1-6-4-2-7-3-8-5-2-7	8
279.302	n/a	139651	learningBlock_4	34	n/a	n/a	8
279.316	n/a	139658	dot_no1_ON	11	n/a	n/a	8
279.906	n/a	139953	dot_no1_OFF	21	n/a	n/a	8
281.226	n/a	140613	dot_no6_ON	16	n/a	n/a	8
281.816	n/a	140908	dot_no6_OFF	26	n/a	n/a	8
283.136	n/a	141568	dot_no4_ON	14	n/a	n/a	8
283.726	n/a	141863	dot_no4_OFF	24	n/a	n/a	8
285.046	n/a	142523	dot_no2_ON	12	n/a	n/a	8
285.636	n/a	142818	dot_no2_OFF	22	n/a	n/a	8
286.956	n/a	143478	dot_no7_ON	17	n/a	n/a	8
287.546	n/a	143773	dot_no7_OFF	27	n/a	n/a	8
288.866	n/a	144433	dot_no3_ON	13	n/a	n/a	8
289.456	n/a	144728	dot_no3_OFF	23	n/a	n/a	8
290.776	n/a	145388	dot_no8_ON	18	n/a	n/a	8
291.366	n/a	145683	dot_no8_OFF	28	n/a	n/a	8
292.686	n/a	146343	dot_no5_ON	15	n/a	n/a	8
293.276	n/a	146638	dot_no5_OFF	25	n/a	n/a	8
294.596	n/a	147298	dot_no2_ON	12	n/a	n/a	8
295.186	n/a	147593	dot_no2_OFF	22	n/a	n/a	8
296.506	n/a	148253	dot_no7_ON	17	n/a	n/a	8
297.096	n/a	148548	dot_no7_OFF	27	1-6-2-4-7-3-8-5-4-5	1-6-4-2-7-3-8-5-2-7	8
314.844	n/a	157422	learningBlock_5	35	n/a	n/a	8
314.856	n/a	157428	dot_no1_ON	11	n/a	n/a	8
315.446	n/a	157723	dot_no1_OFF	21	n/a	n/a	8
316.768	n/a	158384	dot_no6_ON	16	n/a	n/a	8
317.356	n/a	158678	dot_no6_OFF	26	n/a	n/a	8
318.678	n/a	159339	dot_no4_ON	14	n/a	n/a	8
319.266	n/a	159633	dot_no4_OFF	24	n/a	n/a	8
320.586	n/a	160293	dot_no2_ON	12	n/a	n/a	8
321.176	n/a	160588	dot_no2_OFF	22	n/a	n/a	8
322.498	n/a	161249	dot_no7_ON	17	n/a	n/a	8
323.086	n/a	161543	dot_no7_OFF	27	n/a	n/a	8
324.406	n/a	162203	dot_no3_ON	13	n/a	n/a	8
324.996	n/a	162498	dot_no3_OFF	23	n/a	n/a	8
326.318	n/a	163159	dot_no8_ON	18	n/a	n/a	8
326.906	n/a	163453	dot_no8_OFF	28	n/a	n/a	8
328.226	n/a	164113	dot_no5_ON	15	n/a	n/a	8
328.816	n/a	164408	dot_no5_OFF	25	n/a	n/a	8
330.138	n/a	165069	dot_no2_ON	12	n/a	n/a	8
330.726	n/a	165363	dot_no2_OFF	22	n/a	n/a	8
332.046	n/a	166023	dot_no7_ON	17	n/a	n/a	8
332.636	n/a	166318	dot_no7_OFF	27	1-6-4-2-7-3-5-8-1-7	1-6-4-2-7-3-8-5-2-7	8
349.866	n/a	174933	seqLearning_stop	50	n/a	n/a	8
351.805	n/a	175902.5	boundary	boundary	n/a	n/a	8
