onset	duration	sample	value	event_code	user_answer	correct_answer	target_count
0	n/a	0	break cnt	break cnt	n/a	n/a	8
26.028	n/a	13014	seqLearning_start	91	n/a	n/a	8
32.276	n/a	16138	learningBlock_1	31	n/a	n/a	8
32.308	n/a	16154	dot_no1_ON	11	n/a	n/a	8
32.906	n/a	16453	dot_no1_OFF	21	n/a	n/a	8
34.226	n/a	17113	dot_no6_ON	16	n/a	n/a	8
34.806	n/a	17403	dot_no6_OFF	26	n/a	n/a	8
36.126	n/a	18063	dot_no4_ON	14	n/a	n/a	8
36.706	n/a	18353	dot_no4_OFF	24	n/a	n/a	8
38.026	n/a	19013	dot_no2_ON	12	n/a	n/a	8
38.606	n/a	19303	dot_no2_OFF	22	n/a	n/a	8
39.926	n/a	19963	dot_no7_ON	17	n/a	n/a	8
40.506	n/a	20253	dot_no7_OFF	27	n/a	n/a	8
41.826	n/a	20913	dot_no3_ON	13	n/a	n/a	8
42.406	n/a	21203	dot_no3_OFF	23	n/a	n/a	8
43.726	n/a	21863	dot_no8_ON	18	n/a	n/a	8
44.306	n/a	22153	dot_no8_OFF	28	n/a	n/a	8
45.636	n/a	22818	dot_no5_ON	15	n/a	n/a	8
46.216	n/a	23108	dot_no5_OFF	25	n/a	n/a	8
47.536	n/a	23768	dot_no2_ON	12	n/a	n/a	8
48.116	n/a	24058	dot_no2_OFF	22	n/a	n/a	8
49.436	n/a	24718	dot_no7_ON	17	n/a	n/a	8
50.016	n/a	25008	dot_no7_OFF	27	1-6-4-2-7-3-8-5-1-1	1-6-4-2-7-3-8-5-2-7	8
108.88	n/a	54440	learningBlock_2	32	n/a	n/a	8
108.888	n/a	54444	dot_no1_ON	11	n/a	n/a	8
109.468	n/a	54734	dot_no1_OFF	21	n/a	n/a	8
110.788	n/a	55394	dot_no6_ON	16	n/a	n/a	8
111.368	n/a	55684	dot_no6_OFF	26	n/a	n/a	8
112.688	n/a	56344	dot_no4_ON	14	n/a	n/a	8
113.268	n/a	56634	dot_no4_OFF	24	n/a	n/a	8
114.588	n/a	57294	dot_no2_ON	12	n/a	n/a	8
115.168	n/a	57584	dot_no2_OFF	22	n/a	n/a	8
116.488	n/a	58244	dot_no7_ON	17	n/a	n/a	8
117.068	n/a	58534	dot_no7_OFF	27	n/a	n/a	8
118.388	n/a	59194	dot_no3_ON	13	n/a	n/a	8
118.968	n/a	59484	dot_no3_OFF	23	n/a	n/a	8
120.288	n/a	60144	dot_no8_ON	18	n/a	n/a	8
120.868	n/a	60434	dot_no8_OFF	28	n/a	n/a	8
122.188	n/a	61094	dot_no5_ON	15	n/a	n/a	8
122.768	n/a	61384	dot_no5_OFF	25	n/a	n/a	8
124.088	n/a	62044	dot_no2_ON	12	n/a	n/a	8
124.668	n/a	62334	dot_no2_OFF	22	n/a	n/a	8
125.988	n/a	62994	dot_no7_ON	17	n/a	n/a	8
126.568	n/a	63284	dot_no7_OFF	27	1-6-8-5-4-3-2-7-1-6	1-6-4-2-7-3-8-5-2-7	8
167.89	n/a	83945	learningBlock_3	33	n/a	n/a	8
167.898	n/a	83949	dot_no1_ON	11	n/a	n/a	8
168.478	n/a	84239	dot_no1_OFF	21	n/a	n/a	8
169.798	n/a	84899	dot_no6_ON	16	n/a	n/a	8
170.378	n/a	85189	dot_no6_OFF	26	n/a	n/a	8
171.698	n/a	85849	dot_no4_ON	14	n/a	n/a	8
172.278	n/a	86139	dot_no4_OFF	24	n/a	n/a	8
173.598	n/a	86799	dot_no2_ON	12	n/a	n/a	8
174.178	n/a	87089	dot_no2_OFF	22	n/a	n/a	8
175.498	n/a	87749	dot_no7_ON	17	n/a	n/a	8
176.078	n/a	88039	dot_no7_OFF	27	n/a	n/a	8
177.398	n/a	88699	dot_no3_ON	13	n/a	n/a	8
177.988	n/a	88994	dot_no3_OFF	23	n/a	n/a	8
179.308	n/a	89654	dot_no8_ON	18	n/a	n/a	8
179.888	n/a	89944	dot_no8_OFF	28	n/a	n/a	8
181.208	n/a	90604	dot_no5_ON	15	n/a	n/a	8
181.788	n/a	90894	dot_no5_OFF	25	n/a	n/a	8
183.11	n/a	91555	dot_no2_ON	12	n/a	n/a	8
183.688	n/a	91844	dot_no2_OFF	22	n/a	n/a	8
185.01	n/a	92505	dot_no7_ON	17	n/a	n/a	8
185.588	n/a	92794	dot_no7_OFF	27	1-6-4-2-7-3-8-5-2-6	1-6-4-2-7-3-8-5-2-7	8
206.462	n/a	103231	learningBlock_4	34	n/a	n/a	8
206.47	n/a	103235	dot_no1_ON	11	n/a	n/a	8
207.05	n/a	103525	dot_no1_OFF	21	n/a	n/a	8
208.37	n/a	104185	dot_no6_ON	16	n/a	n/a	8
208.95	n/a	104475	dot_no6_OFF	26	n/a	n/a	8
210.27	n/a	105135	dot_no4_ON	14	n/a	n/a	8
210.85	n/a	105425	dot_no4_OFF	24	n/a	n/a	8
212.17	n/a	106085	dot_no2_ON	12	n/a	n/a	8
212.75	n/a	106375	dot_no2_OFF	22	n/a	n/a	8
214.07	n/a	107035	dot_no7_ON	17	n/a	n/a	8
214.66	n/a	107330	dot_no7_OFF	27	n/a	n/a	8
215.98	n/a	107990	dot_no3_ON	13	n/a	n/a	8
216.56	n/a	108280	dot_no3_OFF	23	n/a	n/a	8
217.88	n/a	108940	dot_no8_ON	18	n/a	n/a	8
218.46	n/a	109230	dot_no8_OFF	28	n/a	n/a	8
219.78	n/a	109890	dot_no5_ON	15	n/a	n/a	8
220.36	n/a	110180	dot_no5_OFF	25	n/a	n/a	8
221.68	n/a	110840	dot_no2_ON	12	n/a	n/a	8
222.26	n/a	111130	dot_no2_OFF	22	n/a	n/a	8
223.58	n/a	111790	dot_no7_ON	17	n/a	n/a	8
224.16	n/a	112080	dot_no7_OFF	27	1-6-4-2-7-3-8-5-2-7	1-6-4-2-7-3-8-5-2-7	8
241.45	n/a	120725	learningBlock_5	35	n/a	n/a	8
241.46	n/a	120730	dot_no1_ON	11	n/a	n/a	8
242.04	n/a	121020	dot_no1_OFF	21	n/a	n/a	8
243.36	n/a	121680	dot_no6_ON	16	n/a	n/a	8
243.94	n/a	121970	dot_no6_OFF	26	n/a	n/a	8
245.26	n/a	122630	dot_no4_ON	14	n/a	n/a	8
245.84	n/a	122920	dot_no4_OFF	24	n/a	n/a	8
247.16	n/a	123580	dot_no2_ON	12	n/a	n/a	8
247.74	n/a	123870	dot_no2_OFF	22	n/a	n/a	8
249.06	n/a	124530	dot_no7_ON	17	n/a	n/a	8
249.64	n/a	124820	dot_no7_OFF	27	n/a	n/a	8
250.96	n/a	125480	dot_no3_ON	13	n/a	n/a	8
251.54	n/a	125770	dot_no3_OFF	23	n/a	n/a	8
252.86	n/a	126430	dot_no8_ON	18	n/a	n/a	8
253.44	n/a	126720	dot_no8_OFF	28	n/a	n/a	8
254.76	n/a	127380	dot_no5_ON	15	n/a	n/a	8
255.34	n/a	127670	dot_no5_OFF	25	n/a	n/a	8
256.66	n/a	128330	dot_no2_ON	12	n/a	n/a	8
257.24	n/a	128620	dot_no2_OFF	22	n/a	n/a	8
258.56	n/a	129280	dot_no7_ON	17	n/a	n/a	8
259.14	n/a	129570	dot_no7_OFF	27	1-6-4-2-7-3-8-5-2-7	1-6-4-2-7-3-8-5-2-7	8
275.124	n/a	137562	seqLearning_stop	50	n/a	n/a	8
279.677	n/a	139838.5	boundary	boundary	n/a	n/a	8
