onset	duration	sample	value	event_code	user_answer	correct_answer	target_count
0	n/a	0	break cnt	break cnt	n/a	n/a	8
27.442	n/a	13721	seqLearning_start	91	n/a	n/a	8
33.718	n/a	16859	learningBlock_1	31	n/a	n/a	8
33.75	n/a	16875	dot_no1_ON	11	n/a	n/a	8
34.338	n/a	17169	dot_no1_OFF	21	n/a	n/a	8
35.658	n/a	17829	dot_no6_ON	16	n/a	n/a	8
36.238	n/a	18119	dot_no6_OFF	26	n/a	n/a	8
37.558	n/a	18779	dot_no4_ON	14	n/a	n/a	8
38.138	n/a	19069	dot_no4_OFF	24	n/a	n/a	8
39.458	n/a	19729	dot_no2_ON	12	n/a	n/a	8
40.048	n/a	20024	dot_no2_OFF	22	n/a	n/a	8
41.368	n/a	20684	dot_no7_ON	17	n/a	n/a	8
41.948	n/a	20974	dot_no7_OFF	27	n/a	n/a	8
43.268	n/a	21634	dot_no3_ON	13	n/a	n/a	8
43.848	n/a	21924	dot_no3_OFF	23	n/a	n/a	8
45.168	n/a	22584	dot_no8_ON	18	n/a	n/a	8
45.748	n/a	22874	dot_no8_OFF	28	n/a	n/a	8
47.068	n/a	23534	dot_no5_ON	15	n/a	n/a	8
47.648	n/a	23824	dot_no5_OFF	25	n/a	n/a	8
48.968	n/a	24484	dot_no2_ON	12	n/a	n/a	8
49.548	n/a	24774	dot_no2_OFF	22	n/a	n/a	8
50.868	n/a	25434	dot_no7_ON	17	n/a	n/a	8
51.448	n/a	25724	dot_no7_OFF	27	1-5-2-4-7-3-8-6-3-2	1-6-4-2-7-3-8-5-2-7	8
80.208	n/a	40104	learningBlock_2	32	n/a	n/a	8
80.218	n/a	40109	dot_no1_ON	11	n/a	n/a	8
80.798	n/a	40399	dot_no1_OFF	21	n/a	n/a	8
82.118	n/a	41059	dot_no6_ON	16	n/a	n/a	8
82.698	n/a	41349	dot_no6_OFF	26	n/a	n/a	8
84.018	n/a	42009	dot_no4_ON	14	n/a	n/a	8
84.598	n/a	42299	dot_no4_OFF	24	n/a	n/a	8
85.918	n/a	42959	dot_no2_ON	12	n/a	n/a	8
86.498	n/a	43249	dot_no2_OFF	22	n/a	n/a	8
87.818	n/a	43909	dot_no7_ON	17	n/a	n/a	8
88.398	n/a	44199	dot_no7_OFF	27	n/a	n/a	8
89.718	n/a	44859	dot_no3_ON	13	n/a	n/a	8
90.296	n/a	45148	dot_no3_OFF	23	n/a	n/a	8
91.616	n/a	45808	dot_no8_ON	18	n/a	n/a	8
92.196	n/a	46098	dot_no8_OFF	28	n/a	n/a	8
93.516	n/a	46758	dot_no5_ON	15	n/a	n/a	8
94.096	n/a	47048	dot_no5_OFF	25	n/a	n/a	8
95.418	n/a	47709	dot_no2_ON	12	n/a	n/a	8
95.998	n/a	47999	dot_no2_OFF	22	n/a	n/a	8
97.316	n/a	48658	dot_no7_ON	17	n/a	n/a	8
97.896	n/a	48948	dot_no7_OFF	27	1-6-4-2-7-3-8-5-2-3	1-6-4-2-7-3-8-5-2-7	8
116.168	n/a	58084	learningBlock_3	33	n/a	n/a	8
116.176	n/a	58088	dot_no1_ON	11	n/a	n/a	8
116.756	n/a	58378	dot_no1_OFF	21	n/a	n/a	8
118.076	n/a	59038	dot_no6_ON	16	n/a	n/a	8
118.656	n/a	59328	dot_no6_OFF	26	n/a	n/a	8
119.976	n/a	59988	dot_no4_ON	14	n/a	n/a	8
120.556	n/a	60278	dot_no4_OFF	24	n/a	n/a	8
121.876	n/a	60938	dot_no2_ON	12	n/a	n/a	8
122.456	n/a	61228	dot_no2_OFF	22	n/a	n/a	8
123.776	n/a	61888	dot_no7_ON	17	n/a	n/a	8
124.356	n/a	62178	dot_no7_OFF	27	n/a	n/a	8
125.676	n/a	62838	dot_no3_ON	13	n/a	n/a	8
126.256	n/a	63128	dot_no3_OFF	23	n/a	n/a	8
127.578	n/a	63789	dot_no8_ON	18	n/a	n/a	8
128.156	n/a	64078	dot_no8_OFF	28	n/a	n/a	8
129.476	n/a	64738	dot_no5_ON	15	n/a	n/a	8
130.056	n/a	65028	dot_no5_OFF	25	n/a	n/a	8
131.376	n/a	65688	dot_no2_ON	12	n/a	n/a	8
131.956	n/a	65978	dot_no2_OFF	22	n/a	n/a	8
133.276	n/a	66638	dot_no7_ON	17	n/a	n/a	8
133.856	n/a	66928	dot_no7_OFF	27	1-6-4-2-7-3-8-5-2-7	1-6-4-2-7-3-8-5-2-7	8
165.218	n/a	82609	learningBlock_4	34	n/a	n/a	8
165.226	n/a	82613	dot_no1_ON	11	n/a	n/a	8
165.806	n/a	82903	dot_no1_OFF	21	n/a	n/a	8
167.126	n/a	83563	dot_no6_ON	16	n/a	n/a	8
167.706	n/a	83853	dot_no6_OFF	26	n/a	n/a	8
169.026	n/a	84513	dot_no4_ON	14	n/a	n/a	8
169.606	n/a	84803	dot_no4_OFF	24	n/a	n/a	8
170.926	n/a	85463	dot_no2_ON	12	n/a	n/a	8
171.506	n/a	85753	dot_no2_OFF	22	n/a	n/a	8
172.826	n/a	86413	dot_no7_ON	17	n/a	n/a	8
173.416	n/a	86708	dot_no7_OFF	27	n/a	n/a	8
174.736	n/a	87368	dot_no3_ON	13	n/a	n/a	8
175.316	n/a	87658	dot_no3_OFF	23	n/a	n/a	8
176.636	n/a	88318	dot_no8_ON	18	n/a	n/a	8
177.216	n/a	88608	dot_no8_OFF	28	n/a	n/a	8
178.536	n/a	89268	dot_no5_ON	15	n/a	n/a	8
179.116	n/a	89558	dot_no5_OFF	25	n/a	n/a	8
180.436	n/a	90218	dot_no2_ON	12	n/a	n/a	8
181.016	n/a	90508	dot_no2_OFF	22	n/a	n/a	8
182.336	n/a	91168	dot_no7_ON	17	n/a	n/a	8
182.916	n/a	91458	dot_no7_OFF	27	1-6-4-2-7-3-8-5-2-7	1-6-4-2-7-3-8-5-2-7	8
203.576	n/a	101788	learningBlock_5	35	n/a	n/a	8
203.584	n/a	101792	dot_no1_ON	11	n/a	n/a	8
204.164	n/a	102082	dot_no1_OFF	21	n/a	n/a	8
205.484	n/a	102742	dot_no6_ON	16	n/a	n/a	8
206.066	n/a	103033	dot_no6_OFF	26	n/a	n/a	8
207.384	n/a	103692	dot_no4_ON	14	n/a	n/a	8
207.964	n/a	103982	dot_no4_OFF	24	n/a	n/a	8
209.286	n/a	104643	dot_no2_ON	12	n/a	n/a	8
209.864	n/a	104932	dot_no2_OFF	22	n/a	n/a	8
211.184	n/a	105592	dot_no7_ON	17	n/a	n/a	8
211.764	n/a	105882	dot_no7_OFF	27	n/a	n/a	8
213.084	n/a	106542	dot_no3_ON	13	n/a	n/a	8
213.664	n/a	106832	dot_no3_OFF	23	n/a	n/a	8
214.984	n/a	107492	dot_no8_ON	18	n/a	n/a	8
215.574	n/a	107787	dot_no8_OFF	28	n/a	n/a	8
216.894	n/a	108447	dot_no5_ON	15	n/a	n/a	8
217.474	n/a	108737	dot_no5_OFF	25	n/a	n/a	8
218.794	n/a	109397	dot_no2_ON	12	n/a	n/a	8
219.374	n/a	109687	dot_no2_OFF	22	n/a	n/a	8
220.694	n/a	110347	dot_no7_ON	17	n/a	n/a	8
221.274	n/a	110637	dot_no7_OFF	27	1-6-4-2-7-3-8-5-2-7	1-6-4-2-7-3-8-5-2-7	8
237.128	n/a	118564	seqLearning_stop	50	n/a	n/a	8
242.029	n/a	121014.5	boundary	boundary	n/a	n/a	8
