onset	duration	sample	value	event_code	user_answer	correct_answer	target_count
0	n/a	0	break cnt	break cnt	n/a	n/a	8
31.486	n/a	15743	seqLearning_start	91	n/a	n/a	8
37.75	n/a	18875	learningBlock_1	31	n/a	n/a	8
37.784	n/a	18892	dot_no1_ON	11	n/a	n/a	8
38.372	n/a	19186	dot_no1_OFF	21	n/a	n/a	8
39.692	n/a	19846	dot_no6_ON	16	n/a	n/a	8
40.272	n/a	20136	dot_no6_OFF	26	n/a	n/a	8
41.592	n/a	20796	dot_no4_ON	14	n/a	n/a	8
42.172	n/a	21086	dot_no4_OFF	24	n/a	n/a	8
43.492	n/a	21746	dot_no2_ON	12	n/a	n/a	8
44.072	n/a	22036	dot_no2_OFF	22	n/a	n/a	8
45.392	n/a	22696	dot_no7_ON	17	n/a	n/a	8
45.972	n/a	22986	dot_no7_OFF	27	n/a	n/a	8
47.292	n/a	23646	dot_no3_ON	13	n/a	n/a	8
47.872	n/a	23936	dot_no3_OFF	23	n/a	n/a	8
49.192	n/a	24596	dot_no8_ON	18	n/a	n/a	8
49.772	n/a	24886	dot_no8_OFF	28	n/a	n/a	8
51.092	n/a	25546	dot_no5_ON	15	n/a	n/a	8
51.672	n/a	25836	dot_no5_OFF	25	n/a	n/a	8
52.992	n/a	26496	dot_no2_ON	12	n/a	n/a	8
53.572	n/a	26786	dot_no2_OFF	22	n/a	n/a	8
54.892	n/a	27446	dot_no7_ON	17	n/a	n/a	8
55.472	n/a	27736	dot_no7_OFF	27	1-6-2-3-7-1-8-5-2-4	1-6-4-2-7-3-8-5-2-7	8
91.814	n/a	45907	learningBlock_2	32	n/a	n/a	8
91.82	n/a	45910	dot_no1_ON	11	n/a	n/a	8
92.4	n/a	46200	dot_no1_OFF	21	n/a	n/a	8
93.72	n/a	46860	dot_no6_ON	16	n/a	n/a	8
94.3	n/a	47150	dot_no6_OFF	26	n/a	n/a	8
95.62	n/a	47810	dot_no4_ON	14	n/a	n/a	8
96.2	n/a	48100	dot_no4_OFF	24	n/a	n/a	8
97.52	n/a	48760	dot_no2_ON	12	n/a	n/a	8
98.1	n/a	49050	dot_no2_OFF	22	n/a	n/a	8
99.42	n/a	49710	dot_no7_ON	17	n/a	n/a	8
100	n/a	50000	dot_no7_OFF	27	n/a	n/a	8
101.32	n/a	50660	dot_no3_ON	13	n/a	n/a	8
101.9	n/a	50950	dot_no3_OFF	23	n/a	n/a	8
103.22	n/a	51610	dot_no8_ON	18	n/a	n/a	8
103.8	n/a	51900	dot_no8_OFF	28	n/a	n/a	8
105.12	n/a	52560	dot_no5_ON	15	n/a	n/a	8
105.7	n/a	52850	dot_no5_OFF	25	n/a	n/a	8
107.03	n/a	53515	dot_no2_ON	12	n/a	n/a	8
107.61	n/a	53805	dot_no2_OFF	22	n/a	n/a	8
108.93	n/a	54465	dot_no7_ON	17	n/a	n/a	8
109.51	n/a	54755	dot_no7_OFF	27	1-6-2-4-7-8-5-1-3-8	1-6-4-2-7-3-8-5-2-7	8
155.632	n/a	77816	learningBlock_3	33	n/a	n/a	8
155.64	n/a	77820	dot_no1_ON	11	n/a	n/a	8
156.22	n/a	78110	dot_no1_OFF	21	n/a	n/a	8
157.54	n/a	78770	dot_no6_ON	16	n/a	n/a	8
158.12	n/a	79060	dot_no6_OFF	26	n/a	n/a	8
159.44	n/a	79720	dot_no4_ON	14	n/a	n/a	8
160.02	n/a	80010	dot_no4_OFF	24	n/a	n/a	8
161.34	n/a	80670	dot_no2_ON	12	n/a	n/a	8
161.92	n/a	80960	dot_no2_OFF	22	n/a	n/a	8
163.24	n/a	81620	dot_no7_ON	17	n/a	n/a	8
163.82	n/a	81910	dot_no7_OFF	27	n/a	n/a	8
165.14	n/a	82570	dot_no3_ON	13	n/a	n/a	8
165.72	n/a	82860	dot_no3_OFF	23	n/a	n/a	8
167.04	n/a	83520	dot_no8_ON	18	n/a	n/a	8
167.62	n/a	83810	dot_no8_OFF	28	n/a	n/a	8
168.94	n/a	84470	dot_no5_ON	15	n/a	n/a	8
169.52	n/a	84760	dot_no5_OFF	25	n/a	n/a	8
170.838	n/a	85419	dot_no2_ON	12	n/a	n/a	8
171.418	n/a	85709	dot_no2_OFF	22	n/a	n/a	8
172.738	n/a	86369	dot_no7_ON	17	n/a	n/a	8
173.318	n/a	86659	dot_no7_OFF	27	8-1-5-6-7-3-4-2-6-8	1-6-4-2-7-3-8-5-2-7	8
203.43	n/a	101715	learningBlock_4	34	n/a	n/a	8
203.438	n/a	101719	dot_no1_ON	11	n/a	n/a	8
204.018	n/a	102009	dot_no1_OFF	21	n/a	n/a	8
205.338	n/a	102669	dot_no6_ON	16	n/a	n/a	8
205.918	n/a	102959	dot_no6_OFF	26	n/a	n/a	8
207.238	n/a	103619	dot_no4_ON	14	n/a	n/a	8
207.818	n/a	103909	dot_no4_OFF	24	n/a	n/a	8
209.138	n/a	104569	dot_no2_ON	12	n/a	n/a	8
209.718	n/a	104859	dot_no2_OFF	22	n/a	n/a	8
211.038	n/a	105519	dot_no7_ON	17	n/a	n/a	8
211.618	n/a	105809	dot_no7_OFF	27	n/a	n/a	8
212.938	n/a	106469	dot_no3_ON	13	n/a	n/a	8
213.518	n/a	106759	dot_no3_OFF	23	n/a	n/a	8
214.838	n/a	107419	dot_no8_ON	18	n/a	n/a	8
215.418	n/a	107709	dot_no8_OFF	28	n/a	n/a	8
216.738	n/a	108369	dot_no5_ON	15	n/a	n/a	8
217.328	n/a	108664	dot_no5_OFF	25	n/a	n/a	8
218.648	n/a	109324	dot_no2_ON	12	n/a	n/a	8
219.228	n/a	109614	dot_no2_OFF	22	n/a	n/a	8
220.548	n/a	110274	dot_no7_ON	17	n/a	n/a	8
221.128	n/a	110564	dot_no7_OFF	27	8-4-6-1-5-2-7-3-8-5	1-6-4-2-7-3-8-5-2-7	8
249.09	n/a	124545	learningBlock_5	35	n/a	n/a	8
249.098	n/a	124549	dot_no1_ON	11	n/a	n/a	8
249.678	n/a	124839	dot_no1_OFF	21	n/a	n/a	8
250.998	n/a	125499	dot_no6_ON	16	n/a	n/a	8
251.578	n/a	125789	dot_no6_OFF	26	n/a	n/a	8
252.898	n/a	126449	dot_no4_ON	14	n/a	n/a	8
253.478	n/a	126739	dot_no4_OFF	24	n/a	n/a	8
254.798	n/a	127399	dot_no2_ON	12	n/a	n/a	8
255.378	n/a	127689	dot_no2_OFF	22	n/a	n/a	8
256.698	n/a	128349	dot_no7_ON	17	n/a	n/a	8
257.278	n/a	128639	dot_no7_OFF	27	n/a	n/a	8
258.598	n/a	129299	dot_no3_ON	13	n/a	n/a	8
259.178	n/a	129589	dot_no3_OFF	23	n/a	n/a	8
260.498	n/a	130249	dot_no8_ON	18	n/a	n/a	8
261.078	n/a	130539	dot_no8_OFF	28	n/a	n/a	8
262.398	n/a	131199	dot_no5_ON	15	n/a	n/a	8
262.978	n/a	131489	dot_no5_OFF	25	n/a	n/a	8
264.298	n/a	132149	dot_no2_ON	12	n/a	n/a	8
264.878	n/a	132439	dot_no2_OFF	22	n/a	n/a	8
266.198	n/a	133099	dot_no7_ON	17	n/a	n/a	8
266.788	n/a	133394	dot_no7_OFF	27	1-6-4-2-7-5-8-3-6-7	1-6-4-2-7-3-8-5-2-7	8
288.728	n/a	144364	seqLearning_stop	50	n/a	n/a	8
292.121	n/a	146060.5	boundary	boundary	n/a	n/a	8
