onset	duration	sample	value	event_code	user_answer	correct_answer
0	n/a	0	break cnt	break cnt	n/a	n/a
75.498	n/a	37749	symbolSearch_start	92	n/a	n/a
81.412	n/a	40706	newPage	20	n/a	n/a
87.646	n/a	43823	trialResponse	14	0	0
89.466	n/a	44733	trialResponse	14	1	1
92.522	n/a	46261	trialResponse	14	0	0
96.418	n/a	48209	trialResponse	14	0	0
104.768	n/a	52384	trialResponse	14	0	0
107.544	n/a	53772	trialResponse	14	0	1
110.56	n/a	55280	trialResponse	14	0	0
114.81	n/a	57405	trialResponse	14	1	1
118.202	n/a	59101	trialResponse	14	0	0
121.698	n/a	60849	trialResponse	14	0	0
126.706	n/a	63353	trialResponse	14	0	0
129.218	n/a	64609	trialResponse	14	1	1
132.09	n/a	66045	trialResponse	14	0	0
133.53	n/a	66765	trialResponse	14	1	1
135.314	n/a	67657	trialResponse	14	1	1
136.068	n/a	68034	newPage	20	n/a	n/a
142.72	n/a	71360	trialResponse	14	1	1
144.208	n/a	72104	trialResponse	14	1	1
147.562	n/a	73781	trialResponse	14	0	0
155.178	n/a	77589	trialResponse	14	1	1
159.09	n/a	79545	trialResponse	14	1	0
160.802	n/a	80401	trialResponse	14	1	1
163.72	n/a	81860	trialResponse	14	0	0
169.04	n/a	84520	trialResponse	14	1	1
173.16	n/a	86580	trialResponse	14	1	1
176.698	n/a	88349	trialResponse	14	0	0
180.73	n/a	90365	trialResponse	14	0	1
185.508	n/a	92754	trialResponse	14	0	0
188.49	n/a	94245	trialResponse	14	1	1
191.058	n/a	95529	trialResponse	14	1	1
195.052	n/a	97526	trialResponse	14	0	0
196.09	n/a	98045	newPage	20	n/a	n/a
201.432	n/a	100716	trialResponse	14	0	0
201.452	n/a	100726	newPage	20	n/a	n/a
205.303	n/a	102651.5	boundary	boundary	n/a	n/a
