onset	duration	sample	value	event_code	user_answer	correct_answer	target_count
0	n/a	0	break cnt	break cnt	n/a	n/a	6
25.142	n/a	12571	seqLearning_start	91	n/a	n/a	6
31.418	n/a	15709	learningBlock_1	31	n/a	n/a	6
31.446	n/a	15723	dot_no1_ON	11	n/a	n/a	6
32.036	n/a	16018	dot_no1_OFF	21	n/a	n/a	6
33.354	n/a	16677	dot_no6_ON	16	n/a	n/a	6
33.934	n/a	16967	dot_no6_OFF	26	n/a	n/a	6
35.254	n/a	17627	dot_no4_ON	14	n/a	n/a	6
35.834	n/a	17917	dot_no4_OFF	24	n/a	n/a	6
37.154	n/a	18577	dot_no2_ON	12	n/a	n/a	6
37.736	n/a	18868	dot_no2_OFF	22	n/a	n/a	6
39.054	n/a	19527	dot_no3_ON	13	n/a	n/a	6
39.634	n/a	19817	dot_no3_OFF	23	n/a	n/a	6
40.954	n/a	20477	dot_no5_ON	15	n/a	n/a	6
41.534	n/a	20767	dot_no5_OFF	25	n/a	n/a	6
42.854	n/a	21427	dot_no2_ON	12	n/a	n/a	6
43.434	n/a	21717	dot_no2_OFF	22	1-6-5-3-2-4-2	1-6-4-2-3-5-2	6
78.126	n/a	39063	learningBlock_2	32	n/a	n/a	6
78.134	n/a	39067	dot_no1_ON	11	n/a	n/a	6
78.714	n/a	39357	dot_no1_OFF	21	n/a	n/a	6
80.034	n/a	40017	dot_no6_ON	16	n/a	n/a	6
80.614	n/a	40307	dot_no6_OFF	26	n/a	n/a	6
81.934	n/a	40967	dot_no4_ON	14	n/a	n/a	6
82.514	n/a	41257	dot_no4_OFF	24	n/a	n/a	6
83.834	n/a	41917	dot_no2_ON	12	n/a	n/a	6
84.414	n/a	42207	dot_no2_OFF	22	n/a	n/a	6
85.734	n/a	42867	dot_no3_ON	13	n/a	n/a	6
86.314	n/a	43157	dot_no3_OFF	23	n/a	n/a	6
87.634	n/a	43817	dot_no5_ON	15	n/a	n/a	6
88.214	n/a	44107	dot_no5_OFF	25	n/a	n/a	6
89.534	n/a	44767	dot_no2_ON	12	n/a	n/a	6
90.114	n/a	45057	dot_no2_OFF	22	1-6-4-3-5-2-2	1-6-4-2-3-5-2	6
133.084	n/a	66542	learningBlock_3	33	n/a	n/a	6
133.092	n/a	66546	dot_no1_ON	11	n/a	n/a	6
133.682	n/a	66841	dot_no1_OFF	21	n/a	n/a	6
135.002	n/a	67501	dot_no6_ON	16	n/a	n/a	6
135.582	n/a	67791	dot_no6_OFF	26	n/a	n/a	6
136.902	n/a	68451	dot_no4_ON	14	n/a	n/a	6
137.482	n/a	68741	dot_no4_OFF	24	n/a	n/a	6
138.802	n/a	69401	dot_no2_ON	12	n/a	n/a	6
139.382	n/a	69691	dot_no2_OFF	22	n/a	n/a	6
140.702	n/a	70351	dot_no3_ON	13	n/a	n/a	6
141.282	n/a	70641	dot_no3_OFF	23	n/a	n/a	6
142.602	n/a	71301	dot_no5_ON	15	n/a	n/a	6
143.182	n/a	71591	dot_no5_OFF	25	n/a	n/a	6
144.502	n/a	72251	dot_no2_ON	12	n/a	n/a	6
145.082	n/a	72541	dot_no2_OFF	22	6-5-3-4-2-6-5	1-6-4-2-3-5-2	6
198.934	n/a	99467	learningBlock_4	34	n/a	n/a	6
198.942	n/a	99471	dot_no1_ON	11	n/a	n/a	6
199.522	n/a	99761	dot_no1_OFF	21	n/a	n/a	6
200.842	n/a	100421	dot_no6_ON	16	n/a	n/a	6
201.422	n/a	100711	dot_no6_OFF	26	n/a	n/a	6
202.742	n/a	101371	dot_no4_ON	14	n/a	n/a	6
203.332	n/a	101666	dot_no4_OFF	24	n/a	n/a	6
204.652	n/a	102326	dot_no2_ON	12	n/a	n/a	6
205.232	n/a	102616	dot_no2_OFF	22	n/a	n/a	6
206.552	n/a	103276	dot_no3_ON	13	n/a	n/a	6
207.132	n/a	103566	dot_no3_OFF	23	n/a	n/a	6
208.452	n/a	104226	dot_no5_ON	15	n/a	n/a	6
209.032	n/a	104516	dot_no5_OFF	25	n/a	n/a	6
210.352	n/a	105176	dot_no2_ON	12	n/a	n/a	6
210.932	n/a	105466	dot_no2_OFF	22	4-3-5-2-2-5-4	1-6-4-2-3-5-2	6
245.452	n/a	122726	learningBlock_5	35	n/a	n/a	6
245.46	n/a	122730	dot_no1_ON	11	n/a	n/a	6
246.04	n/a	123020	dot_no1_OFF	21	n/a	n/a	6
247.36	n/a	123680	dot_no6_ON	16	n/a	n/a	6
247.94	n/a	123970	dot_no6_OFF	26	n/a	n/a	6
249.26	n/a	124630	dot_no4_ON	14	n/a	n/a	6
249.84	n/a	124920	dot_no4_OFF	24	n/a	n/a	6
251.16	n/a	125580	dot_no2_ON	12	n/a	n/a	6
251.74	n/a	125870	dot_no2_OFF	22	n/a	n/a	6
253.06	n/a	126530	dot_no3_ON	13	n/a	n/a	6
253.64	n/a	126820	dot_no3_OFF	23	n/a	n/a	6
254.96	n/a	127480	dot_no5_ON	15	n/a	n/a	6
255.54	n/a	127770	dot_no5_OFF	25	n/a	n/a	6
256.86	n/a	128430	dot_no2_ON	12	n/a	n/a	6
257.44	n/a	128720	dot_no2_OFF	22	1-5-4-3-2-1-5	1-6-4-2-3-5-2	6
287.112	n/a	143556	seqLearning_stop	50	n/a	n/a	6
291.727	n/a	145863.5	boundary	boundary	n/a	n/a	6
