onset	duration	sample	value	event_code	user_answer	correct_answer	target_count
0	n/a	0	break cnt	break cnt	n/a	n/a	8
29.312	n/a	14656	seqLearning_start	91	n/a	n/a	8
35.586	n/a	17793	learningBlock_1	31	n/a	n/a	8
35.618	n/a	17809	dot_no1_ON	11	n/a	n/a	8
36.208	n/a	18104	dot_no1_OFF	21	n/a	n/a	8
37.526	n/a	18763	dot_no6_ON	16	n/a	n/a	8
38.106	n/a	19053	dot_no6_OFF	26	n/a	n/a	8
39.426	n/a	19713	dot_no4_ON	14	n/a	n/a	8
40.006	n/a	20003	dot_no4_OFF	24	n/a	n/a	8
41.326	n/a	20663	dot_no2_ON	12	n/a	n/a	8
41.906	n/a	20953	dot_no2_OFF	22	n/a	n/a	8
43.226	n/a	21613	dot_no7_ON	17	n/a	n/a	8
43.806	n/a	21903	dot_no7_OFF	27	n/a	n/a	8
45.126	n/a	22563	dot_no3_ON	13	n/a	n/a	8
45.706	n/a	22853	dot_no3_OFF	23	n/a	n/a	8
47.026	n/a	23513	dot_no8_ON	18	n/a	n/a	8
47.606	n/a	23803	dot_no8_OFF	28	n/a	n/a	8
48.926	n/a	24463	dot_no5_ON	15	n/a	n/a	8
49.516	n/a	24758	dot_no5_OFF	25	n/a	n/a	8
50.836	n/a	25418	dot_no2_ON	12	n/a	n/a	8
51.418	n/a	25709	dot_no2_OFF	22	n/a	n/a	8
52.736	n/a	26368	dot_no7_ON	17	n/a	n/a	8
53.316	n/a	26658	dot_no7_OFF	27	1-6-3-2-7-4-8-5-7-2	1-6-4-2-7-3-8-5-2-7	8
107.97	n/a	53985	learningBlock_2	32	n/a	n/a	8
107.978	n/a	53989	dot_no1_ON	11	n/a	n/a	8
108.558	n/a	54279	dot_no1_OFF	21	n/a	n/a	8
109.878	n/a	54939	dot_no6_ON	16	n/a	n/a	8
110.458	n/a	55229	dot_no6_OFF	26	n/a	n/a	8
111.778	n/a	55889	dot_no4_ON	14	n/a	n/a	8
112.358	n/a	56179	dot_no4_OFF	24	n/a	n/a	8
113.678	n/a	56839	dot_no2_ON	12	n/a	n/a	8
114.258	n/a	57129	dot_no2_OFF	22	n/a	n/a	8
115.578	n/a	57789	dot_no7_ON	17	n/a	n/a	8
116.158	n/a	58079	dot_no7_OFF	27	n/a	n/a	8
117.478	n/a	58739	dot_no3_ON	13	n/a	n/a	8
118.058	n/a	59029	dot_no3_OFF	23	n/a	n/a	8
119.378	n/a	59689	dot_no8_ON	18	n/a	n/a	8
119.958	n/a	59979	dot_no8_OFF	28	n/a	n/a	8
121.278	n/a	60639	dot_no5_ON	15	n/a	n/a	8
121.858	n/a	60929	dot_no5_OFF	25	n/a	n/a	8
123.178	n/a	61589	dot_no2_ON	12	n/a	n/a	8
123.758	n/a	61879	dot_no2_OFF	22	n/a	n/a	8
125.078	n/a	62539	dot_no7_ON	17	n/a	n/a	8
125.658	n/a	62829	dot_no7_OFF	27	1-6-3-5-8-2-7-4-8-2	1-6-4-2-7-3-8-5-2-7	8
167.002	n/a	83501	learningBlock_3	33	n/a	n/a	8
167.01	n/a	83505	dot_no1_ON	11	n/a	n/a	8
167.59	n/a	83795	dot_no1_OFF	21	n/a	n/a	8
168.91	n/a	84455	dot_no6_ON	16	n/a	n/a	8
169.49	n/a	84745	dot_no6_OFF	26	n/a	n/a	8
170.81	n/a	85405	dot_no4_ON	14	n/a	n/a	8
171.39	n/a	85695	dot_no4_OFF	24	n/a	n/a	8
172.71	n/a	86355	dot_no2_ON	12	n/a	n/a	8
173.29	n/a	86645	dot_no2_OFF	22	n/a	n/a	8
174.61	n/a	87305	dot_no7_ON	17	n/a	n/a	8
175.19	n/a	87595	dot_no7_OFF	27	n/a	n/a	8
176.51	n/a	88255	dot_no3_ON	13	n/a	n/a	8
177.1	n/a	88550	dot_no3_OFF	23	n/a	n/a	8
178.42	n/a	89210	dot_no8_ON	18	n/a	n/a	8
179	n/a	89500	dot_no8_OFF	28	n/a	n/a	8
180.32	n/a	90160	dot_no5_ON	15	n/a	n/a	8
180.9	n/a	90450	dot_no5_OFF	25	n/a	n/a	8
182.22	n/a	91110	dot_no2_ON	12	n/a	n/a	8
182.8	n/a	91400	dot_no2_OFF	22	n/a	n/a	8
184.12	n/a	92060	dot_no7_ON	17	n/a	n/a	8
184.7	n/a	92350	dot_no7_OFF	27	1-6-2-7-4-8-5-3-2-3	1-6-4-2-7-3-8-5-2-7	8
217.634	n/a	108817	learningBlock_4	34	n/a	n/a	8
217.642	n/a	108821	dot_no1_ON	11	n/a	n/a	8
218.22	n/a	109110	dot_no1_OFF	21	n/a	n/a	8
219.54	n/a	109770	dot_no6_ON	16	n/a	n/a	8
220.12	n/a	110060	dot_no6_OFF	26	n/a	n/a	8
221.44	n/a	110720	dot_no4_ON	14	n/a	n/a	8
222.02	n/a	111010	dot_no4_OFF	24	n/a	n/a	8
223.34	n/a	111670	dot_no2_ON	12	n/a	n/a	8
223.92	n/a	111960	dot_no2_OFF	22	n/a	n/a	8
225.24	n/a	112620	dot_no7_ON	17	n/a	n/a	8
225.82	n/a	112910	dot_no7_OFF	27	n/a	n/a	8
227.142	n/a	113571	dot_no3_ON	13	n/a	n/a	8
227.72	n/a	113860	dot_no3_OFF	23	n/a	n/a	8
229.04	n/a	114520	dot_no8_ON	18	n/a	n/a	8
229.62	n/a	114810	dot_no8_OFF	28	n/a	n/a	8
230.94	n/a	115470	dot_no5_ON	15	n/a	n/a	8
231.53	n/a	115765	dot_no5_OFF	25	n/a	n/a	8
232.85	n/a	116425	dot_no2_ON	12	n/a	n/a	8
233.43	n/a	116715	dot_no2_OFF	22	n/a	n/a	8
234.75	n/a	117375	dot_no7_ON	17	n/a	n/a	8
235.33	n/a	117665	dot_no7_OFF	27	1-5-7-3-6-8-2-4-3-2	1-6-4-2-7-3-8-5-2-7	8
271.564	n/a	135782	learningBlock_5	35	n/a	n/a	8
271.572	n/a	135786	dot_no1_ON	11	n/a	n/a	8
272.152	n/a	136076	dot_no1_OFF	21	n/a	n/a	8
273.472	n/a	136736	dot_no6_ON	16	n/a	n/a	8
274.052	n/a	137026	dot_no6_OFF	26	n/a	n/a	8
275.372	n/a	137686	dot_no4_ON	14	n/a	n/a	8
275.962	n/a	137981	dot_no4_OFF	24	n/a	n/a	8
277.282	n/a	138641	dot_no2_ON	12	n/a	n/a	8
277.862	n/a	138931	dot_no2_OFF	22	n/a	n/a	8
279.182	n/a	139591	dot_no7_ON	17	n/a	n/a	8
279.762	n/a	139881	dot_no7_OFF	27	n/a	n/a	8
281.082	n/a	140541	dot_no3_ON	13	n/a	n/a	8
281.662	n/a	140831	dot_no3_OFF	23	n/a	n/a	8
282.982	n/a	141491	dot_no8_ON	18	n/a	n/a	8
283.562	n/a	141781	dot_no8_OFF	28	n/a	n/a	8
284.882	n/a	142441	dot_no5_ON	15	n/a	n/a	8
285.462	n/a	142731	dot_no5_OFF	25	n/a	n/a	8
286.782	n/a	143391	dot_no2_ON	12	n/a	n/a	8
287.362	n/a	143681	dot_no2_OFF	22	n/a	n/a	8
288.682	n/a	144341	dot_no7_ON	17	n/a	n/a	8
289.272	n/a	144636	dot_no7_OFF	27	1-5-3-7-4-2-8-6-3-6	1-6-4-2-7-3-8-5-2-7	8
318.096	n/a	159048	seqLearning_stop	50	n/a	n/a	8
321.471	n/a	160735.5	boundary	boundary	n/a	n/a	8
