onset	duration	sample	value	event_code	user_answer	correct_answer	target_count
0	n/a	0	break cnt	break cnt	n/a	n/a	6
29.942	n/a	14971	seqLearning_start	91	n/a	n/a	6
39.256	n/a	19628	learningBlock_1	31	n/a	n/a	6
39.274	n/a	19637	dot_no1_ON	11	n/a	n/a	6
39.862	n/a	19931	dot_no1_OFF	21	n/a	n/a	6
41.184	n/a	20592	dot_no6_ON	16	n/a	n/a	6
41.772	n/a	20886	dot_no6_OFF	26	n/a	n/a	6
43.094	n/a	21547	dot_no4_ON	14	n/a	n/a	6
43.682	n/a	21841	dot_no4_OFF	24	n/a	n/a	6
45.004	n/a	22502	dot_no2_ON	12	n/a	n/a	6
45.592	n/a	22796	dot_no2_OFF	22	n/a	n/a	6
46.914	n/a	23457	dot_no3_ON	13	n/a	n/a	6
47.502	n/a	23751	dot_no3_OFF	23	n/a	n/a	6
48.824	n/a	24412	dot_no5_ON	15	n/a	n/a	6
49.412	n/a	24706	dot_no5_OFF	25	n/a	n/a	6
50.734	n/a	25367	dot_no2_ON	12	n/a	n/a	6
51.322	n/a	25661	dot_no2_OFF	22	1-6-4-2-3-5-2	1-6-4-2-3-5-2	6
84.156	n/a	42078	learningBlock_2	32	n/a	n/a	6
84.164	n/a	42082	dot_no1_ON	11	n/a	n/a	6
84.752	n/a	42376	dot_no1_OFF	21	n/a	n/a	6
86.074	n/a	43037	dot_no6_ON	16	n/a	n/a	6
86.664	n/a	43332	dot_no6_OFF	26	n/a	n/a	6
87.984	n/a	43992	dot_no4_ON	14	n/a	n/a	6
88.574	n/a	44287	dot_no4_OFF	24	n/a	n/a	6
89.894	n/a	44947	dot_no2_ON	12	n/a	n/a	6
90.484	n/a	45242	dot_no2_OFF	22	n/a	n/a	6
91.804	n/a	45902	dot_no3_ON	13	n/a	n/a	6
92.394	n/a	46197	dot_no3_OFF	23	n/a	n/a	6
93.714	n/a	46857	dot_no5_ON	15	n/a	n/a	6
94.302	n/a	47151	dot_no5_OFF	25	n/a	n/a	6
95.624	n/a	47812	dot_no2_ON	12	n/a	n/a	6
96.212	n/a	48106	dot_no2_OFF	22	1-6-4-2-3-5-2	1-6-4-2-3-5-2	6
123.418	n/a	61709	learningBlock_3	33	n/a	n/a	6
123.434	n/a	61717	dot_no1_ON	11	n/a	n/a	6
124.024	n/a	62012	dot_no1_OFF	21	n/a	n/a	6
125.344	n/a	62672	dot_no6_ON	16	n/a	n/a	6
125.934	n/a	62967	dot_no6_OFF	26	n/a	n/a	6
127.254	n/a	63627	dot_no4_ON	14	n/a	n/a	6
127.844	n/a	63922	dot_no4_OFF	24	n/a	n/a	6
129.164	n/a	64582	dot_no2_ON	12	n/a	n/a	6
129.752	n/a	64876	dot_no2_OFF	22	n/a	n/a	6
131.074	n/a	65537	dot_no3_ON	13	n/a	n/a	6
131.664	n/a	65832	dot_no3_OFF	23	n/a	n/a	6
132.984	n/a	66492	dot_no5_ON	15	n/a	n/a	6
133.572	n/a	66786	dot_no5_OFF	25	n/a	n/a	6
134.894	n/a	67447	dot_no2_ON	12	n/a	n/a	6
135.482	n/a	67741	dot_no2_OFF	22	1-6-4-2-3-5-2	1-6-4-2-3-5-2	6
168.378	n/a	84189	learningBlock_4	34	n/a	n/a	6
168.384	n/a	84192	dot_no1_ON	11	n/a	n/a	6
168.974	n/a	84487	dot_no1_OFF	21	n/a	n/a	6
170.294	n/a	85147	dot_no6_ON	16	n/a	n/a	6
170.884	n/a	85442	dot_no6_OFF	26	n/a	n/a	6
172.204	n/a	86102	dot_no4_ON	14	n/a	n/a	6
172.794	n/a	86397	dot_no4_OFF	24	n/a	n/a	6
174.114	n/a	87057	dot_no2_ON	12	n/a	n/a	6
174.704	n/a	87352	dot_no2_OFF	22	n/a	n/a	6
176.024	n/a	88012	dot_no3_ON	13	n/a	n/a	6
176.614	n/a	88307	dot_no3_OFF	23	n/a	n/a	6
177.934	n/a	88967	dot_no5_ON	15	n/a	n/a	6
178.524	n/a	89262	dot_no5_OFF	25	n/a	n/a	6
179.844	n/a	89922	dot_no2_ON	12	n/a	n/a	6
180.434	n/a	90217	dot_no2_OFF	22	1-6-4-2-3-5-2	1-6-4-2-3-5-2	6
203.226	n/a	101613	learningBlock_5	35	n/a	n/a	6
203.234	n/a	101617	dot_no1_ON	11	n/a	n/a	6
203.824	n/a	101912	dot_no1_OFF	21	n/a	n/a	6
205.144	n/a	102572	dot_no6_ON	16	n/a	n/a	6
205.734	n/a	102867	dot_no6_OFF	26	n/a	n/a	6
207.054	n/a	103527	dot_no4_ON	14	n/a	n/a	6
207.644	n/a	103822	dot_no4_OFF	24	n/a	n/a	6
208.964	n/a	104482	dot_no2_ON	12	n/a	n/a	6
209.554	n/a	104777	dot_no2_OFF	22	n/a	n/a	6
210.874	n/a	105437	dot_no3_ON	13	n/a	n/a	6
211.464	n/a	105732	dot_no3_OFF	23	n/a	n/a	6
212.784	n/a	106392	dot_no5_ON	15	n/a	n/a	6
213.374	n/a	106687	dot_no5_OFF	25	n/a	n/a	6
214.694	n/a	107347	dot_no2_ON	12	n/a	n/a	6
215.284	n/a	107642	dot_no2_OFF	22	1-6-4-2-3-5-2	1-6-4-2-3-5-2	6
237.186	n/a	118593	seqLearning_stop	50	n/a	n/a	6
238.803	n/a	119401.5	boundary	boundary	n/a	n/a	6
