onset	duration	sample	value	event_code	user_answer	correct_answer
0	n/a	0	break cnt	break cnt	n/a	n/a
29.564	n/a	14782	symbolSearch_start	92	n/a	n/a
32.484	n/a	16242	newPage	20	n/a	n/a
37.35	n/a	18675	trialResponse	14	0	0
42.37	n/a	21185	trialResponse	14	1	1
45.976	n/a	22988	trialResponse	14	0	0
52.744	n/a	26372	trialResponse	14	0	0
59.13	n/a	29565	trialResponse	14	0	0
64.16	n/a	32080	trialResponse	14	1	1
75.504	n/a	37752	trialResponse	14	0	0
80.528	n/a	40264	trialResponse	14	1	1
86.072	n/a	43036	trialResponse	14	0	0
96.472	n/a	48236	trialResponse	14	0	0
101.28	n/a	50640	trialResponse	14	0	0
108.184	n/a	54092	trialResponse	14	1	1
113.538	n/a	56769	trialResponse	14	0	0
116.864	n/a	58432	trialResponse	14	1	1
119.912	n/a	59956	trialResponse	14	1	1
121.68	n/a	60840	newPage	20	n/a	n/a
124.712	n/a	62356	trialResponse	14	1	1
131.616	n/a	65808	trialResponse	14	1	1
138.066	n/a	69033	trialResponse	14	0	0
142.704	n/a	71352	trialResponse	14	1	1
149.09	n/a	74545	trialResponse	14	0	0
154.824	n/a	77412	trialResponse	14	1	1
154.834	n/a	77417	newPage	20	n/a	n/a
161.285	n/a	80642.5	boundary	boundary	n/a	n/a
