onset	duration	sample	value	event_code	user_answer	correct_answer
0	n/a	0	break cnt	break cnt	n/a	n/a
42.426	n/a	21213	symbolSearch_start	92	n/a	n/a
45.338	n/a	22669	newPage	20	n/a	n/a
55.65	n/a	27825	trialResponse	14	0	0
62.696	n/a	31348	trialResponse	14	1	1
73.294	n/a	36647	trialResponse	14	0	0
84.932	n/a	42466	trialResponse	14	1	0
93.252	n/a	46626	trialResponse	14	1	0
97.78	n/a	48890	trialResponse	14	1	1
107.924	n/a	53962	trialResponse	14	0	0
114.844	n/a	57422	trialResponse	14	1	1
121.86	n/a	60930	trialResponse	14	0	0
130.7	n/a	65350	trialResponse	14	0	0
136.74	n/a	68370	trialResponse	14	0	0
142.102	n/a	71051	trialResponse	14	1	1
154.862	n/a	77431	trialResponse	14	0	0
161.894	n/a	80947	trialResponse	14	0	1
165.094	n/a	82547	trialResponse	14	1	1
166.942	n/a	83471	newPage	20	n/a	n/a
172.98	n/a	86490	trialResponse	14	1	1
172.99	n/a	86495	newPage	20	n/a	n/a
179.137	n/a	89568.5	boundary	boundary	n/a	n/a
