onset	duration	sample	value	event_code	user_answer	correct_answer	target_count
0	n/a	0	break cnt	break cnt	n/a	n/a	8
32.74	n/a	16370	seqLearning_start	91	n/a	n/a	8
39.022	n/a	19511	learningBlock_1	31	n/a	n/a	8
39.054	n/a	19527	dot_no1_ON	11	n/a	n/a	8
39.644	n/a	19822	dot_no1_OFF	21	n/a	n/a	8
40.964	n/a	20482	dot_no6_ON	16	n/a	n/a	8
41.544	n/a	20772	dot_no6_OFF	26	n/a	n/a	8
42.864	n/a	21432	dot_no4_ON	14	n/a	n/a	8
43.444	n/a	21722	dot_no4_OFF	24	n/a	n/a	8
44.764	n/a	22382	dot_no2_ON	12	n/a	n/a	8
45.344	n/a	22672	dot_no2_OFF	22	n/a	n/a	8
46.664	n/a	23332	dot_no7_ON	17	n/a	n/a	8
47.244	n/a	23622	dot_no7_OFF	27	n/a	n/a	8
48.564	n/a	24282	dot_no3_ON	13	n/a	n/a	8
49.144	n/a	24572	dot_no3_OFF	23	n/a	n/a	8
50.464	n/a	25232	dot_no8_ON	18	n/a	n/a	8
51.044	n/a	25522	dot_no8_OFF	28	n/a	n/a	8
52.364	n/a	26182	dot_no5_ON	15	n/a	n/a	8
52.944	n/a	26472	dot_no5_OFF	25	n/a	n/a	8
54.264	n/a	27132	dot_no2_ON	12	n/a	n/a	8
54.844	n/a	27422	dot_no2_OFF	22	n/a	n/a	8
56.164	n/a	28082	dot_no7_ON	17	n/a	n/a	8
56.744	n/a	28372	dot_no7_OFF	27	1-6-8-4-2-3-7-5-4-1	1-6-4-2-7-3-8-5-2-7	8
99.436	n/a	49718	learningBlock_2	32	n/a	n/a	8
99.444	n/a	49722	dot_no1_ON	11	n/a	n/a	8
100.024	n/a	50012	dot_no1_OFF	21	n/a	n/a	8
101.344	n/a	50672	dot_no6_ON	16	n/a	n/a	8
101.924	n/a	50962	dot_no6_OFF	26	n/a	n/a	8
103.244	n/a	51622	dot_no4_ON	14	n/a	n/a	8
103.824	n/a	51912	dot_no4_OFF	24	n/a	n/a	8
105.144	n/a	52572	dot_no2_ON	12	n/a	n/a	8
105.724	n/a	52862	dot_no2_OFF	22	n/a	n/a	8
107.044	n/a	53522	dot_no7_ON	17	n/a	n/a	8
107.624	n/a	53812	dot_no7_OFF	27	n/a	n/a	8
108.944	n/a	54472	dot_no3_ON	13	n/a	n/a	8
109.524	n/a	54762	dot_no3_OFF	23	n/a	n/a	8
110.846	n/a	55423	dot_no8_ON	18	n/a	n/a	8
111.424	n/a	55712	dot_no8_OFF	28	n/a	n/a	8
112.744	n/a	56372	dot_no5_ON	15	n/a	n/a	8
113.324	n/a	56662	dot_no5_OFF	25	n/a	n/a	8
114.644	n/a	57322	dot_no2_ON	12	n/a	n/a	8
115.224	n/a	57612	dot_no2_OFF	22	n/a	n/a	8
116.544	n/a	58272	dot_no7_ON	17	n/a	n/a	8
117.124	n/a	58562	dot_no7_OFF	27	1-6-4-3-2-7-8-5-5-6	1-6-4-2-7-3-8-5-2-7	8
151.798	n/a	75899	learningBlock_3	33	n/a	n/a	8
151.806	n/a	75903	dot_no1_ON	11	n/a	n/a	8
152.386	n/a	76193	dot_no1_OFF	21	n/a	n/a	8
153.706	n/a	76853	dot_no6_ON	16	n/a	n/a	8
154.286	n/a	77143	dot_no6_OFF	26	n/a	n/a	8
155.606	n/a	77803	dot_no4_ON	14	n/a	n/a	8
156.186	n/a	78093	dot_no4_OFF	24	n/a	n/a	8
157.506	n/a	78753	dot_no2_ON	12	n/a	n/a	8
158.086	n/a	79043	dot_no2_OFF	22	n/a	n/a	8
159.406	n/a	79703	dot_no7_ON	17	n/a	n/a	8
159.986	n/a	79993	dot_no7_OFF	27	n/a	n/a	8
161.306	n/a	80653	dot_no3_ON	13	n/a	n/a	8
161.886	n/a	80943	dot_no3_OFF	23	n/a	n/a	8
163.206	n/a	81603	dot_no8_ON	18	n/a	n/a	8
163.796	n/a	81898	dot_no8_OFF	28	n/a	n/a	8
165.116	n/a	82558	dot_no5_ON	15	n/a	n/a	8
165.696	n/a	82848	dot_no5_OFF	25	n/a	n/a	8
167.016	n/a	83508	dot_no2_ON	12	n/a	n/a	8
167.596	n/a	83798	dot_no2_OFF	22	n/a	n/a	8
168.916	n/a	84458	dot_no7_ON	17	n/a	n/a	8
169.496	n/a	84748	dot_no7_OFF	27	1-6-4-2-7-3-8-4-5-6	1-6-4-2-7-3-8-5-2-7	8
204.11	n/a	102055	learningBlock_4	34	n/a	n/a	8
204.116	n/a	102058	dot_no1_ON	11	n/a	n/a	8
204.696	n/a	102348	dot_no1_OFF	21	n/a	n/a	8
206.016	n/a	103008	dot_no6_ON	16	n/a	n/a	8
206.596	n/a	103298	dot_no6_OFF	26	n/a	n/a	8
207.916	n/a	103958	dot_no4_ON	14	n/a	n/a	8
208.496	n/a	104248	dot_no4_OFF	24	n/a	n/a	8
209.818	n/a	104909	dot_no2_ON	12	n/a	n/a	8
210.408	n/a	105204	dot_no2_OFF	22	n/a	n/a	8
211.728	n/a	105864	dot_no7_ON	17	n/a	n/a	8
212.308	n/a	106154	dot_no7_OFF	27	n/a	n/a	8
213.628	n/a	106814	dot_no3_ON	13	n/a	n/a	8
214.208	n/a	107104	dot_no3_OFF	23	n/a	n/a	8
215.528	n/a	107764	dot_no8_ON	18	n/a	n/a	8
216.108	n/a	108054	dot_no8_OFF	28	n/a	n/a	8
217.428	n/a	108714	dot_no5_ON	15	n/a	n/a	8
218.018	n/a	109009	dot_no5_OFF	25	n/a	n/a	8
219.338	n/a	109669	dot_no2_ON	12	n/a	n/a	8
219.918	n/a	109959	dot_no2_OFF	22	n/a	n/a	8
221.238	n/a	110619	dot_no7_ON	17	n/a	n/a	8
221.818	n/a	110909	dot_no7_OFF	27	1-6-4-2-8-5-3-7-5-7	1-6-4-2-7-3-8-5-2-7	8
260.632	n/a	130316	learningBlock_5	35	n/a	n/a	8
260.638	n/a	130319	dot_no1_ON	11	n/a	n/a	8
261.218	n/a	130609	dot_no1_OFF	21	n/a	n/a	8
262.538	n/a	131269	dot_no6_ON	16	n/a	n/a	8
263.118	n/a	131559	dot_no6_OFF	26	n/a	n/a	8
264.438	n/a	132219	dot_no4_ON	14	n/a	n/a	8
265.018	n/a	132509	dot_no4_OFF	24	n/a	n/a	8
266.338	n/a	133169	dot_no2_ON	12	n/a	n/a	8
266.918	n/a	133459	dot_no2_OFF	22	n/a	n/a	8
268.238	n/a	134119	dot_no7_ON	17	n/a	n/a	8
268.818	n/a	134409	dot_no7_OFF	27	n/a	n/a	8
270.138	n/a	135069	dot_no3_ON	13	n/a	n/a	8
270.718	n/a	135359	dot_no3_OFF	23	n/a	n/a	8
272.038	n/a	136019	dot_no8_ON	18	n/a	n/a	8
272.618	n/a	136309	dot_no8_OFF	28	n/a	n/a	8
273.938	n/a	136969	dot_no5_ON	15	n/a	n/a	8
274.518	n/a	137259	dot_no5_OFF	25	n/a	n/a	8
275.838	n/a	137919	dot_no2_ON	12	n/a	n/a	8
276.418	n/a	138209	dot_no2_OFF	22	n/a	n/a	8
277.738	n/a	138869	dot_no7_ON	17	n/a	n/a	8
278.328	n/a	139164	dot_no7_OFF	27	1-6-4-8-5-7-2-3-3-6	1-6-4-2-7-3-8-5-2-7	8
306.042	n/a	153021	seqLearning_stop	50	n/a	n/a	8
309.973	n/a	154986.5	boundary	boundary	n/a	n/a	8
